timestamp_ms,ax,ay,az,gx,gy,gz
3964,0.0530,-0.0071,1.1238,0.0737,-0.0647,-0.1224
3974,0.0554,-0.0071,1.1226,0.0584,-0.1411,-0.0156
3984,0.0620,-0.0093,1.1179,0.1042,-0.0953,0.0913
3994,0.0630,-0.0066,1.1213,0.0431,-0.0800,-0.0003
4004,0.0688,-0.0105,1.1201,-0.0027,0.0116,0.1066
4014,0.0676,-0.0098,1.1167,-0.0332,0.0116,0.1066
4024,0.0647,-0.0117,1.1235,-0.0485,0.0574,0.0302
4034,0.0588,-0.0129,1.1238,-0.1095,0.0269,-0.0308
4044,0.0581,-0.0127,1.1218,-0.0637,0.1032,-0.0156
4054,0.0552,-0.0159,1.1306,-0.0332,0.1948,-0.0156
4064,0.0554,-0.0137,1.1289,-0.0332,0.1490,-0.0614
4074,0.0527,-0.0142,1.1382,-0.0179,0.1185,0.1218
4084,0.0532,-0.0217,1.1328,0.0279,-0.0647,0.0760
4094,0.0630,-0.0229,1.1252,0.0431,-0.0342,0.1524
4104,0.0591,-0.0127,1.1287,-0.0027,-0.0647,0.0760
4114,0.0576,-0.0149,1.1228,0.1347,0.0727,0.0150
4124,0.0596,-0.0105,1.1313,0.0431,-0.0189,0.0455
4134,0.0581,-0.0071,1.1328,0.0279,-0.0800,0.0455
4144,0.0586,-0.0095,1.1165,0.0584,-0.0342,-0.0614
4154,0.0601,-0.0063,1.1167,0.0279,-0.0495,0.0302
4164,0.0623,-0.0100,1.1218,0.0737,-0.0189,0.0913
4174,0.0630,-0.0085,1.1265,0.0431,-0.0342,0.0760
4184,0.0635,-0.0051,1.1177,-0.0332,0.0269,0.0455
4194,0.0649,-0.0088,1.1128,-0.0790,0.0727,0.0302
4204,0.0684,-0.0115,1.1204,-0.0943,0.0421,0.0302
4214,0.0632,-0.0161,1.1265,-0.0332,0.0727,-0.0003
4224,0.0576,-0.0110,1.1257,-0.0637,0.0421,0.0760
4234,0.0557,-0.0168,1.1277,-0.0179,0.0421,-0.0308
4244,0.0540,-0.0188,1.1223,-0.0332,-0.0189,-0.0461
4254,0.0554,-0.0203,1.1316,0.1042,0.0574,0.0608
4264,0.0579,-0.0159,1.1245,0.1195,0.0269,0.0455
4274,0.0574,-0.0203,1.1301,0.1195,-0.0342,-0.0003
4284,0.0618,-0.0154,1.1277,0.0431,-0.0800,-0.0156
4294,0.0566,-0.0120,1.1199,0.0737,-0.0647,0.0608
4304,0.0601,-0.0125,1.1262,0.0126,-0.0037,0.0150
4314,0.0552,-0.0100,1.1206,0.0431,-0.0647,-0.0461
4324,0.0537,-0.0083,1.1221,0.0737,-0.0800,0.0608
4334,0.0591,-0.0081,1.1179,0.0431,-0.0495,-0.0003
4344,0.0591,-0.0085,1.1262,0.0431,-0.1258,0.0760
4354,0.0625,-0.0088,1.1299,0.0431,-0.0800,0.0760
4364,0.0618,-0.0127,1.1260,-0.0943,-0.0037,0.0608
4374,0.0603,-0.0156,1.1187,-0.1248,0.0879,0.0150
4384,0.0576,-0.0117,1.1182,-0.1095,0.1032,-0.0461
4394,0.0581,-0.0149,1.1267,-0.1401,0.0421,0.0302
4404,0.0540,-0.0178,1.1238,-0.1248,-0.0037,-0.0308
4414,0.0549,-0.0154,1.1279,-0.0943,-0.0037,-0.0766
4424,0.0596,-0.0161,1.1221,-0.0637,0.0421,0.0150
4434,0.0557,-0.0166,1.1265,0.0889,-0.0037,0.0150
4444,0.0586,-0.0188,1.1270,0.0737,-0.0037,0.0302
4454,0.0601,-0.0127,1.1243,0.0737,0.0116,-0.0003
4464,0.0562,-0.0144,1.1287,0.0737,-0.0342,0.0150
4474,0.0564,-0.0100,1.1223,0.0737,0.0269,-0.0308
4484,0.0552,-0.0120,1.1279,0.0737,0.0421,0.0455
4494,0.0566,-0.0100,1.1262,0.0737,0.0269,-0.0156
4504,0.0591,-0.0090,1.1226,0.0279,-0.0189,0.0760
4514,0.0601,-0.0105,1.1233,0.0126,-0.0037,0.0455
4524,0.0596,-0.0110,1.1211,0.0126,0.0574,-0.0003
4534,0.0603,-0.0154,1.1191,-0.0027,0.0879,-0.0156
4544,0.0569,-0.0173,1.1221,0.0431,0.0116,0.0608
4554,0.0557,-0.0132,1.1206,-0.0179,0.0269,0.0913
4564,0.0586,-0.0076,1.1201,-0.0332,-0.0342,0.0913
4574,0.0559,-0.0154,1.1204,-0.0332,0.0269,0.0760
4584,0.0603,-0.0134,1.1223,-0.0332,0.0269,0.0302
4594,0.0557,-0.0159,1.1270,-0.0485,0.0269,0.0150
4604,0.0576,-0.0168,1.1250,-0.0027,-0.0037,-0.0156
4614,0.0583,-0.0166,1.1169,-0.0027,0.0116,-0.0461
4624,0.0569,-0.0154,1.1230,-0.0027,0.0879,-0.1224
4634,0.0583,-0.0107,1.1216,0.0431,0.0421,-0.0308
4644,0.0530,-0.0137,1.1179,0.0584,0.0116,-0.0156
4654,0.0571,-0.0115,1.1233,0.0431,-0.0189,0.0760
4664,0.0574,-0.0095,1.1248,0.0737,0.0421,-0.0156
4674,0.0598,-0.0098,1.1169,0.0431,-0.0189,-0.0003
4684,0.0627,-0.0081,1.1270,0.0126,-0.0495,0.0760
4694,0.0627,-0.0129,1.1221,0.0126,-0.0189,-0.0156
4704,0.0569,-0.0132,1.1252,0.0279,-0.0189,-0.0614
4714,0.0515,-0.0125,1.1230,-0.0943,0.0727,-0.1377
4724,0.0591,-0.0144,1.1204,-0.0943,0.0879,-0.0919
4734,0.0547,-0.0125,1.1267,-0.0790,0.0879,-0.0766
4744,0.0566,-0.0115,1.1226,-0.0332,0.0727,0.0455
4754,0.0564,-0.0105,1.1252,0.0431,0.0269,0.0608
4764,0.0569,-0.0144,1.1235,-0.0027,-0.0342,-0.0003
4774,0.0593,-0.0139,1.1226,0.0737,-0.0495,-0.0919
4784,0.0586,-0.0149,1.1216,0.0126,-0.0037,-0.0003
4794,0.0583,-0.0151,1.1277,-0.0179,0.0116,-0.0308
4804,0.0579,-0.0098,1.1240,0.0737,-0.0495,-0.0156
4814,0.0562,-0.0151,1.1221,0.0431,-0.0647,-0.0614
4824,0.0554,-0.0063,1.1221,0.0279,-0.0647,-0.0308
4834,0.0581,-0.0139,1.1208,0.0126,-0.0342,0.0455
4844,0.0579,-0.0100,1.1187,-0.0790,-0.0495,0.0760
4854,0.0579,-0.0129,1.1204,-0.0943,-0.0037,0.0302
4864,0.0571,-0.0112,1.1248,-0.0637,0.0269,-0.0003
4874,0.0579,-0.0110,1.1128,-0.0790,-0.0647,-0.0308
4884,0.0569,-0.0127,1.1248,-0.0027,-0.0647,0.0150
4894,0.0603,-0.0151,1.1230,-0.0332,-0.0037,-0.0156
4904,0.0588,-0.0120,1.1213,-0.0637,-0.0647,0.0302
4914,0.0603,-0.0154,1.1235,-0.0179,-0.0495,-0.0003
4924,0.0583,-0.0139,1.1230,-0.0179,0.0574,0.0150
4934,0.0596,-0.0142,1.1243,0.0126,0.0421,-0.0766
4944,0.0557,-0.0137,1.1272,0.0889,-0.0495,-0.0614
4954,0.0562,-0.0161,1.1287,0.0279,0.0269,-0.0614
4964,0.0586,-0.0156,1.1213,0.0737,0.0116,-0.0461
4974,0.0566,-0.0117,1.1245,0.0279,-0.1105,-0.0461
4984,0.0576,-0.0103,1.1233,0.0889,-0.0037,0.0150
4994,0.0601,-0.0085,1.1228,-0.0027,0.0116,-0.0156
5004,0.0601,-0.0115,1.1277,0.0431,0.0727,-0.0156
5014,0.0603,-0.0144,1.1189,-0.0332,0.0421,0.0150
5024,0.0581,-0.0105,1.1250,-0.0027,0.0269,-0.0003
5034,0.0579,-0.0146,1.1252,-0.0332,0.0269,-0.0308
5044,0.0596,-0.0139,1.1270,-0.0485,0.0269,-0.0461
5054,0.0581,-0.0098,1.1267,-0.0637,0.0116,0.0150
5064,0.0581,-0.0093,1.1230,-0.0790,0.1032,-0.0461
5074,0.0564,-0.0120,1.1313,-0.0332,0.0574,-0.0308
5084,0.0605,-0.0132,1.1235,-0.0485,0.0421,0.0455
5094,0.0586,-0.0142,1.1199,-0.0179,-0.0342,-0.0308
5104,0.0564,-0.0105,1.1206,-0.0637,-0.0037,-0.0461
5114,0.0542,-0.0142,1.1243,0.0584,-0.0037,0.0150
5124,0.0601,-0.0117,1.1233,0.0431,-0.0189,-0.0003
5134,0.0564,-0.0134,1.1233,0.0126,-0.0189,0.1066
5144,0.0586,-0.0137,1.1296,0.0737,-0.0037,0.0455
5154,0.0593,-0.0161,1.1196,0.0279,-0.0189,0.0150
5164,0.0579,-0.0127,1.1189,0.1042,-0.0495,-0.0156
5174,0.0569,-0.0132,1.1248,0.0126,-0.0495,0.0913
5184,0.0610,-0.0100,1.1228,-0.0332,0.0116,-0.0308
5194,0.0627,-0.0088,1.1194,0.0279,0.0269,-0.0614
5204,0.0613,-0.0139,1.1257,-0.0179,0.0116,-0.0156
5214,0.0583,-0.0100,1.1221,-0.0332,-0.0342,-0.0461
5224,0.0574,-0.0103,1.1260,-0.0637,-0.0189,-0.0308
5234,0.0549,-0.0149,1.1238,-0.0027,-0.0037,-0.0156
5244,0.0581,-0.0198,1.1201,0.0126,0.1185,0.0150
5254,0.0515,-0.0144,1.1262,-0.0027,0.0116,0.0150
5264,0.0537,-0.0156,1.1230,0.0126,0.0574,0.0455
5274,0.0559,-0.0100,1.1213,-0.0179,-0.0342,-0.0461
5284,0.0544,-0.0144,1.1189,-0.0027,-0.0037,0.0302
5294,0.0576,-0.0156,1.1223,-0.0179,-0.0342,0.0150
5304,0.0635,-0.0093,1.1299,-0.0179,-0.0342,0.0150
5314,0.0586,-0.0115,1.1184,0.0279,0.0727,0.0302
5324,0.0576,-0.0105,1.1260,0.0126,0.0421,-0.0308
5334,0.0618,-0.0137,1.1208,0.0279,0.0574,0.0455
5344,0.0586,-0.0095,1.1208,0.0431,0.0421,0.0150
5354,0.0591,-0.0122,1.1196,-0.0485,-0.0189,0.0302
5364,0.0593,-0.0105,1.1245,-0.0485,0.0269,0.0608
5374,0.0601,-0.0161,1.1201,-0.0790,0.0116,0.0150
5384,0.0583,-0.0129,1.1272,0.0584,0.0421,0.0150
5394,0.0593,-0.0117,1.1160,-0.0332,-0.0189,0.0760
5404,0.0576,-0.0129,1.1270,0.0279,0.0879,-0.0308
5414,0.0586,-0.0105,1.1228,0.0279,0.0421,-0.0003
5424,0.0581,-0.0122,1.1213,0.0279,-0.0495,-0.0156
5434,0.0581,-0.0120,1.1277,0.0431,0.0421,0.0608
5444,0.0630,-0.0115,1.1311,0.0279,-0.0342,0.0608
5454,0.0615,-0.0176,1.1240,0.0737,-0.0189,0.0608
5464,0.0603,-0.0173,1.1272,0.0126,-0.0342,0.0150
5474,0.0605,-0.0117,1.1296,0.0431,0.0574,-0.0003
5484,0.0571,-0.0107,1.1169,-0.0027,0.0421,0.0302
5494,0.0557,-0.0110,1.1294,0.0431,0.0269,0.0608
5504,0.0549,-0.0095,1.1169,0.0584,-0.0189,0.0150
5514,0.0540,-0.0112,1.1294,0.0126,0.0116,0.0150
5524,0.0571,-0.0095,1.1187,0.0584,-0.0189,0.0302
5534,0.0557,-0.0156,1.1272,-0.0027,-0.0342,0.0150
5544,0.0576,-0.0095,1.1223,-0.0179,-0.0037,0.0760
5554,0.0557,-0.0144,1.1194,-0.0332,0.0269,-0.0156
5564,0.0579,-0.0127,1.1216,-0.0179,-0.0342,-0.0156
5574,0.0640,-0.0144,1.1216,-0.0485,-0.0037,-0.0766
5584,0.0591,-0.0132,1.1257,-0.0332,0.0574,-0.0614
5594,0.0632,-0.0132,1.1211,0.0279,0.0421,-0.0614
5604,0.0615,-0.0144,1.1165,-0.0027,0.0421,-0.0308
5614,0.0642,-0.0139,1.1233,0.0126,0.0421,-0.0003
5624,0.0586,-0.0115,1.1235,0.0126,0.0421,0.0608
5634,0.0581,-0.0146,1.1230,-0.0790,0.1032,-0.0614
5644,0.0549,-0.0166,1.1240,-0.0027,0.1337,-0.0003
5654,0.0571,-0.0129,1.1235,0.0737,0.0574,0.0608
5664,0.0535,-0.0139,1.1235,-0.1248,0.0269,-0.0308
5674,0.0544,-0.0134,1.1272,-0.0637,0.0421,-0.0308
5684,0.0537,-0.0100,1.1243,0.0431,0.0574,0.0150
5694,0.0591,-0.0125,1.1204,0.0584,0.0116,0.0302
5704,0.0588,-0.0151,1.1245,0.0126,-0.0037,0.0455
5714,0.0588,-0.0105,1.1260,0.0126,-0.0342,-0.0308
5724,0.0610,-0.0122,1.1230,-0.0179,0.0269,-0.0766
5734,0.0588,-0.0083,1.1191,0.0431,0.0421,-0.0766
5744,0.0603,-0.0122,1.1282,-0.0485,0.0421,0.0302
5754,0.0586,-0.0127,1.1282,-0.0943,0.0269,0.0150
5764,0.0564,-0.0173,1.1208,-0.0485,0.0116,0.0150
5774,0.0571,-0.0137,1.1230,-0.0637,0.0879,-0.0919
5784,0.0579,-0.0132,1.1233,-0.0332,-0.0189,-0.0308
5794,0.0562,-0.0129,1.1252,-0.0179,0.0269,-0.0156
5804,0.0601,-0.0115,1.1221,0.0584,-0.0037,0.0608
5814,0.0562,-0.0154,1.1252,-0.0485,-0.0189,0.0608
5824,0.0588,-0.0122,1.1252,-0.0027,0.0269,0.0455
5834,0.0598,-0.0085,1.1272,0.0584,0.0269,0.0608
5844,0.0588,-0.0142,1.1267,0.0279,-0.0342,-0.0156
5854,0.0554,-0.0164,1.1218,-0.0179,-0.0342,-0.0003
5864,0.0542,-0.0125,1.1218,-0.0637,-0.0189,-0.0156
5874,0.0598,-0.0134,1.1187,-0.0027,-0.0189,-0.0614
5884,0.0559,-0.0156,1.1235,-0.0179,0.0269,-0.0308
5894,0.0603,-0.0125,1.1172,-0.0179,-0.0189,0.0150
5904,0.0581,-0.0129,1.1221,0.0737,-0.0342,-0.0003
5914,0.0586,-0.0164,1.1230,0.1042,0.0116,0.0150
5924,0.0549,-0.0115,1.1255,0.0889,0.0116,0.0302
5934,0.0598,-0.0085,1.1201,0.0889,0.0727,0.0150
5944,0.0603,-0.0137,1.1230,0.0279,0.0879,0.0150
5954,0.0618,-0.0139,1.1201,0.0431,0.0879,0.1524
5964,0.0576,-0.0125,1.1267,0.0737,0.0574,-0.0003
5974,0.0569,-0.0112,1.1216,0.0126,0.0269,-0.0461
5984,0.0559,-0.0132,1.1287,0.0279,0.0269,-0.0003
5994,0.0549,-0.0061,1.1257,-0.0179,0.0116,0.0150
6004,0.0559,-0.0112,1.1296,-0.0027,-0.0342,-0.0003
6014,0.0535,-0.0103,1.1272,-0.0485,-0.0953,0.0608
6024,0.0576,-0.0088,1.1233,-0.0027,-0.1105,0.1218
6034,0.0610,-0.0100,1.1252,-0.0027,-0.0953,0.0608
6044,0.0579,-0.0156,1.1133,-0.0790,-0.1105,-0.0156
6054,0.0627,-0.0100,1.1243,-0.0027,-0.0495,-0.0003
6064,0.0625,-0.0176,1.1223,-0.0790,-0.0647,0.0760
6074,0.0640,-0.0146,1.1255,-0.0637,-0.0037,0.0150
6084,0.0645,-0.0134,1.1191,0.0126,0.0269,-0.0461
6094,0.0562,-0.0139,1.1145,0.0279,0.0421,-0.0156
6104,0.0610,-0.0156,1.1135,-0.0332,0.0269,-0.0003
6114,0.0569,-0.0154,1.1226,0.0126,0.0574,0.0150
6124,0.0566,-0.0122,1.1250,-0.0027,0.0879,0.0150
6134,0.0593,-0.0112,1.1230,0.0889,-0.0342,0.0150
6144,0.0610,-0.0142,1.1226,0.0737,0.0269,0.0455
6154,0.0547,-0.0117,1.1230,-0.0179,0.0421,-0.0003
6164,0.0559,-0.0085,1.1270,-0.0637,-0.0189,-0.1377
6174,0.0549,-0.0122,1.1255,0.0431,-0.0342,0.0150
6184,0.0569,-0.0110,1.1184,-0.0027,-0.0647,0.0455
6194,0.0571,-0.0151,1.1262,-0.0179,-0.0342,0.0608
6204,0.0583,-0.0139,1.1240,-0.0179,-0.0342,0.0913
6214,0.0625,-0.0142,1.1177,0.0126,-0.0647,0.0608
6224,0.0630,-0.0151,1.1201,0.0126,0.0116,-0.0308
6234,0.0586,-0.0149,1.1194,-0.0027,0.0269,-0.0003
6244,0.0576,-0.0129,1.1243,-0.0637,0.0421,0.0150
6254,0.0581,-0.0144,1.1189,-0.0637,-0.0037,0.0150
6264,0.0579,-0.0137,1.1223,-0.0179,-0.0189,0.0608
6274,0.0598,-0.0107,1.1230,-0.0485,0.0574,0.0150
6284,0.0569,-0.0125,1.1252,-0.0179,0.0879,0.0302
6294,0.0581,-0.0156,1.1274,-0.0485,0.0269,0.0760
6304,0.0596,-0.0144,1.1191,-0.0027,0.0421,-0.0003
6314,0.0615,-0.0112,1.1248,0.0431,0.0879,0.0150
6324,0.0569,-0.0120,1.1235,-0.0485,0.0421,-0.0003
6334,0.0598,-0.0117,1.1184,-0.0485,-0.0037,-0.0003
6344,0.0552,-0.0173,1.1250,-0.0485,0.0269,0.0302
6354,0.0564,-0.0154,1.1233,-0.0485,0.0269,0.0913
6364,0.0588,-0.0149,1.1255,-0.0637,0.0727,-0.0156
6374,0.0576,-0.0154,1.1196,0.0126,0.0421,-0.0461
6384,0.0610,-0.0132,1.1221,-0.0179,0.0116,-0.0156
6394,0.0645,-0.0151,1.1270,0.0126,-0.0037,-0.0003
6404,0.0640,-0.0142,1.1201,0.0279,-0.0189,0.0150
6414,0.0601,-0.0132,1.1223,0.0126,0.0574,-0.0614
6424,0.0564,-0.0095,1.1218,-0.0027,0.0574,-0.0156
6434,0.0535,-0.0134,1.1223,-0.0637,-0.0342,0.0455
6444,0.0618,-0.0085,1.1252,-0.0332,-0.0037,-0.0156
6454,0.0557,-0.0088,1.1243,0.0431,0.0116,0.0760
6464,0.0608,-0.0129,1.1211,0.0584,-0.0342,0.1218
6474,0.0588,-0.0139,1.1228,-0.0332,-0.0189,0.0608
6484,0.0603,-0.0115,1.1218,-0.0332,0.0116,0.0150
6494,0.0593,-0.0115,1.1282,-0.0943,0.0421,-0.0156
6504,0.0593,-0.0166,1.1279,-0.1401,-0.0037,0.0150
6514,0.0554,-0.0137,1.1277,-0.0943,-0.0189,-0.0766
6524,0.0571,-0.0090,1.1238,-0.0179,-0.0647,-0.0919
6534,0.0588,-0.0178,1.1238,0.0431,0.0116,-0.0308
6544,0.0623,-0.0132,1.1245,0.0279,-0.0189,0.1066
6554,0.0669,-0.0146,1.1248,0.0126,-0.0647,0.0150
6564,0.0637,-0.0183,1.1255,-0.0027,-0.0800,-0.0461
6574,0.0613,-0.0146,1.1228,0.1042,-0.0647,-0.0156
6584,0.0576,-0.0144,1.1162,0.1042,0.0269,-0.0156
6594,0.0613,-0.0134,1.1191,0.0584,-0.0342,-0.1224
6604,0.0530,-0.0129,1.1226,0.0126,-0.0647,-0.0461
6614,0.0535,-0.0100,1.1240,0.0279,0.0421,-0.0614
6624,0.0564,-0.0098,1.1208,0.0431,0.0269,0.0455
6634,0.0581,-0.0137,1.1216,0.0431,-0.0037,-0.0614
6644,0.0613,-0.0120,1.1272,0.0279,-0.0037,-0.0614
6654,0.0549,-0.0142,1.1223,0.0279,-0.0037,-0.0308
6664,0.0586,-0.0166,1.1245,-0.0332,0.0574,-0.0461
6674,0.0608,-0.0127,1.1208,-0.0027,-0.0342,-0.0156
6684,0.0576,-0.0095,1.1213,-0.0332,0.0269,0.0150
6694,0.0515,-0.0149,1.1194,-0.0943,-0.0037,-0.0156
6704,0.0571,-0.0129,1.1233,-0.0943,-0.0037,0.0150
6714,0.0581,-0.0129,1.1252,-0.0485,-0.0495,0.0760
6724,0.0625,-0.0181,1.1169,-0.0179,0.0116,0.1218
6734,0.0610,-0.0139,1.1138,0.0431,-0.1105,0.1066
6744,0.0642,-0.0137,1.1199,0.0737,0.0269,0.0150
6754,0.0610,-0.0129,1.1230,0.0431,0.0727,-0.0614
6764,0.0586,-0.0144,1.1218,0.0279,0.0727,-0.0614
6774,0.0564,-0.0122,1.1201,-0.0179,0.0421,0.0302
6784,0.0549,-0.0137,1.1233,0.0431,0.0269,-0.0003
6794,0.0547,-0.0142,1.1270,0.0584,0.0574,0.1066
6804,0.0566,-0.0115,1.1233,0.0279,0.0269,0.0913
6814,0.0610,-0.0115,1.1228,0.0279,-0.0037,0.1371
6824,0.0579,-0.0144,1.1230,-0.0332,0.0269,0.0302
6834,0.0593,-0.0217,1.1238,-0.0332,0.0727,-0.0156
6844,0.0598,-0.0134,1.1238,-0.0179,0.0116,-0.0003
6854,0.0588,-0.0115,1.1265,-0.0179,-0.0342,-0.0766
6864,0.0586,-0.0122,1.1257,0.0126,-0.0189,-0.0003
6874,0.0615,-0.0105,1.1257,0.0126,-0.0800,0.0455
6884,0.0574,-0.0161,1.1248,0.0431,-0.0189,0.0150
6894,0.0583,-0.0117,1.1211,0.0584,-0.0189,0.0302
6904,0.0596,-0.0137,1.1187,0.0584,0.0421,-0.0308
6914,0.0620,-0.0127,1.1228,0.0584,-0.0037,-0.0766
6924,0.0562,-0.0127,1.1260,0.0126,-0.0037,-0.0766
6934,0.0510,-0.0151,1.1213,0.0126,-0.0495,-0.0919
6944,0.0505,-0.0122,1.1187,0.0126,-0.0189,-0.0766
6954,0.0532,-0.0073,1.1235,-0.0027,-0.0037,-0.0156
6964,0.0566,-0.0129,1.1301,-0.0179,-0.0037,0.0302
6974,0.0562,-0.0125,1.1230,0.0126,0.0269,-0.0308
6984,0.0588,-0.0154,1.1189,0.0431,-0.0037,-0.0003
6994,0.0571,-0.0149,1.1216,0.0431,-0.0189,0.0150
7004,0.0632,-0.0137,1.1279,0.0126,0.0116,0.0302
7014,0.0579,-0.0127,1.1248,0.0431,-0.0495,0.0455
7024,0.0591,-0.0166,1.1211,0.0737,-0.1258,0.0150
7034,0.0557,-0.0105,1.1165,0.0431,-0.0800,-0.0156
7044,0.0569,-0.0166,1.1299,-0.0943,-0.0342,-0.0003
7054,0.0605,-0.0134,1.1187,-0.0332,-0.0342,0.0150
7064,0.0623,-0.0156,1.1282,-0.0027,-0.0189,0.0455
7074,0.0637,-0.0142,1.1113,0.0431,-0.0342,0.0608
7084,0.0620,-0.0193,1.1240,-0.0027,0.0727,-0.0156
7094,0.0620,-0.0132,1.1223,0.0126,0.0269,-0.0461
7104,0.0610,-0.0193,1.1235,0.0431,0.0116,-0.0003
7114,0.0586,-0.0132,1.1216,-0.0027,0.0727,-0.0308
7124,0.0564,-0.0112,1.1240,0.0279,-0.0037,0.0913
7134,0.0574,-0.0156,1.1228,0.0279,-0.0342,0.0302
7144,0.0583,-0.0151,1.1172,-0.0943,0.0574,-0.0614
7154,0.0588,-0.0159,1.1316,-0.0332,0.0574,-0.0614
7164,0.0581,-0.0146,1.1216,0.0126,-0.0037,-0.0919
7174,0.0596,-0.0146,1.1216,-0.0179,0.1032,-0.1072
7184,0.0518,-0.0142,1.1226,0.0737,0.1185,-0.0308
7194,0.0535,-0.0110,1.1233,0.0584,0.0421,0.0150
7204,0.0566,-0.0105,1.1292,0.0737,-0.0037,0.0760
7214,0.0562,-0.0122,1.1216,-0.0332,0.0421,0.0608
7224,0.0574,-0.0125,1.1257,-0.0179,0.1185,-0.0156
7234,0.0569,-0.0085,1.1201,-0.0179,-0.0037,0.0302
7244,0.0579,-0.0125,1.1257,-0.0027,-0.0953,0.0760
7254,0.0623,-0.0105,1.1211,-0.0790,-0.0647,0.0760
7264,0.0591,-0.0151,1.1255,-0.0179,-0.0189,0.0455
7274,0.0630,-0.0154,1.1226,-0.0332,-0.1105,0.0455
7284,0.0586,-0.0164,1.1284,-0.0179,0.0421,0.0455
7294,0.0635,-0.0171,1.1233,-0.0637,0.0269,-0.0003
7304,0.0598,-0.0173,1.1235,-0.0637,0.0421,0.0302
7314,0.0635,-0.0181,1.1248,0.0279,-0.0189,-0.0156
7324,0.0576,-0.0156,1.1201,0.0431,-0.0189,0.0302
7334,0.0618,-0.0132,1.1252,0.0584,0.0421,-0.0156
7344,0.0571,-0.0095,1.1257,0.0279,0.0269,0.0302
7354,0.0554,-0.0166,1.1260,0.0431,-0.0495,-0.0461
7364,0.0574,-0.0137,1.1243,0.1347,0.0269,0.0608
7374,0.0562,-0.0149,1.1296,0.0279,0.0727,0.0455
7384,0.0552,-0.0132,1.1221,-0.0637,0.0574,0.0913
7394,0.0574,-0.0146,1.1216,-0.0179,-0.0037,0.0913
7404,0.0554,-0.0146,1.1245,0.0126,-0.0342,-0.0308
7414,0.0574,-0.0125,1.1230,0.0889,-0.0189,0.0608
7424,0.0576,-0.0112,1.1238,-0.0637,-0.1258,0.0760
7434,0.0552,-0.0110,1.1211,-0.0332,-0.0647,0.0455
7444,0.0566,-0.0134,1.1218,-0.0485,-0.0037,-0.0461
7454,0.0554,-0.0137,1.1235,-0.0637,-0.0342,-0.0308
7464,0.0603,-0.0156,1.1226,-0.0943,-0.0037,-0.0308
7474,0.0630,-0.0166,1.1248,-0.0790,0.0269,0.0455
7484,0.0645,-0.0115,1.1162,-0.0637,0.0116,0.0302
7494,0.0603,-0.0132,1.1218,-0.0332,-0.0495,0.0150
7504,0.0632,-0.0166,1.1216,-0.0027,-0.0189,0.0302
7514,0.0596,-0.0073,1.1248,0.0279,0.1490,-0.0156
7524,0.0569,-0.0139,1.1238,0.0737,0.0879,-0.0156
7534,0.0569,-0.0129,1.1174,0.0584,0.0727,-0.0766
7544,0.0588,-0.0129,1.1199,0.0737,0.0727,-0.1224
7554,0.0576,-0.0085,1.1279,-0.0027,0.0574,-0.1072
7564,0.0581,-0.0127,1.1162,0.0126,0.0574,-0.1072
7574,0.0562,-0.0088,1.1235,0.0737,0.0879,-0.0614
7584,0.0557,-0.0105,1.1267,0.0431,0.0269,0.0608
7594,0.0579,-0.0107,1.1284,0.0584,-0.0495,0.0608
7604,0.0588,-0.0073,1.1248,-0.0637,-0.0037,0.0913
7614,0.0586,-0.0125,1.1221,-0.0485,-0.0342,0.0608
7624,0.0610,-0.0137,1.1211,-0.0637,-0.0647,-0.0308
7634,0.0608,-0.0159,1.1233,-0.0790,0.0269,-0.0461
7644,0.0615,-0.0132,1.1267,-0.0790,0.0574,-0.0308
7654,0.0591,-0.0154,1.1270,0.0279,0.0269,0.0302
7664,0.0615,-0.0171,1.1270,0.0279,0.0879,0.0150
7674,0.0598,-0.0132,1.1199,0.0431,0.0574,-0.0308
7684,0.0623,-0.0171,1.1235,0.0431,0.0727,-0.0308
7694,0.0576,-0.0122,1.1294,-0.0027,0.1032,-0.1072
7704,0.0532,-0.0125,1.1208,0.1195,0.0879,-0.0461
7714,0.0623,-0.0139,1.1172,0.0431,0.0116,-0.0919
7724,0.0549,-0.0117,1.1189,0.1195,-0.0037,-0.0461
7734,0.0564,-0.0100,1.1184,0.1042,0.0727,-0.0614
7744,0.0603,-0.0142,1.1196,0.1653,0.0727,-0.0461
7754,0.0564,-0.0129,1.1189,0.1347,0.0269,-0.0308
7764,0.0544,-0.0129,1.1250,0.0279,0.0421,-0.0308
7774,0.0615,-0.0122,1.1211,-0.0027,-0.0647,-0.0156
7784,0.0569,-0.0110,1.1226,0.0279,-0.0189,0.0150
7794,0.0608,-0.0134,1.1270,0.0279,-0.0189,0.0150
7804,0.0583,-0.0137,1.1245,0.0279,-0.0189,-0.0156
7814,0.0601,-0.0129,1.1250,-0.0179,0.0269,0.0302
7824,0.0605,-0.0142,1.1206,-0.0027,-0.0189,0.0302
7834,0.0593,-0.0129,1.1235,-0.0179,-0.0342,-0.0308
7844,0.0574,-0.0125,1.1284,-0.0027,0.0116,0.0455
7854,0.0586,-0.0098,1.1279,-0.0332,0.1185,-0.0308
7864,0.0605,-0.0159,1.1235,-0.0027,0.0727,0.0302
7874,0.0630,-0.0151,1.1206,-0.0179,0.0727,-0.0156
7884,0.0627,-0.0122,1.1262,-0.0332,0.0269,-0.0919
7894,0.0566,-0.0100,1.1230,0.0279,-0.0037,-0.0766
7904,0.0576,-0.0132,1.1255,0.0279,0.0727,-0.1072
7914,0.0544,-0.0098,1.1245,0.0431,0.0269,0.0302
7924,0.0535,-0.0120,1.1274,0.0279,0.0116,-0.0461
7934,0.0557,-0.0122,1.1194,0.0889,-0.0495,0.0150
7944,0.0569,-0.0117,1.1238,0.0737,0.0269,-0.0308
7954,0.0613,-0.0100,1.1238,0.0279,0.0116,-0.0461
7964,0.0588,-0.0154,1.1213,-0.0027,0.0116,0.0302
7974,0.0615,-0.0144,1.1194,0.0126,0.0116,0.0608
7984,0.0603,-0.0142,1.1194,-0.0943,0.0269,-0.0003
7994,0.0618,-0.0154,1.1194,-0.0485,0.0421,-0.0156
8004,0.0559,-0.0159,1.1257,-0.1095,0.0116,0.0150
8014,0.0608,-0.0171,1.1277,-0.0790,0.0116,0.0760
8024,0.0552,-0.0159,1.1248,-0.0637,-0.0037,-0.0003
8034,0.0603,-0.0144,1.1206,-0.0027,0.0116,0.0760
8044,0.0571,-0.0151,1.1230,0.0279,-0.0037,0.0302
8054,0.0596,-0.0149,1.1243,0.0431,-0.0189,-0.0614
8064,0.0576,-0.0173,1.1226,0.0889,0.0421,0.0150
8074,0.0601,-0.0107,1.1287,0.0279,-0.0342,0.0455
8084,0.0569,-0.0112,1.1235,0.0431,0.0269,0.0455
8094,0.0571,-0.0073,1.1311,-0.0027,0.0574,0.0150
8104,0.0625,-0.0103,1.1218,-0.0637,-0.0037,0.0302
8114,0.0581,-0.0117,1.1218,-0.0485,-0.0189,0.0455
8124,0.0610,-0.0083,1.1199,-0.0179,-0.0953,0.1218
8134,0.0598,-0.0115,1.1194,-0.0027,0.0269,0.0150
8144,0.0605,-0.0129,1.1140,0.0431,-0.0800,0.1066
8154,0.0613,-0.0164,1.1294,-0.0027,-0.0342,0.0150
8164,0.0596,-0.0132,1.1287,-0.0790,-0.0189,-0.0156
8174,0.0605,-0.0115,1.1233,-0.0790,0.0269,-0.0156
8184,0.0591,-0.0144,1.1184,-0.0790,-0.0342,0.0150
8194,0.0566,-0.0125,1.1284,-0.0637,-0.0037,-0.0003
8204,0.0581,-0.0120,1.1262,-0.0485,0.0574,-0.0003
8214,0.0625,-0.0156,1.1274,-0.0332,-0.0037,0.0608
8224,0.0630,-0.0144,1.1182,0.0279,-0.0189,0.0455
8234,0.0569,-0.0122,1.1250,0.0889,0.0269,-0.0156
8244,0.0603,-0.0137,1.1272,0.0431,-0.0189,-0.0003
8254,0.0610,-0.0120,1.1243,0.0279,0.0727,0.0302
8264,0.0583,-0.0132,1.1216,-0.0179,0.0421,0.0150
8274,0.0579,-0.0107,1.1213,0.0584,-0.0189,0.0608
8284,0.0618,-0.0125,1.1270,0.0126,-0.0342,-0.0308
8294,0.0601,-0.0078,1.1287,0.0431,0.0269,-0.0308
8304,0.0623,-0.0107,1.1230,0.0279,-0.0037,0.0150
8314,0.0601,-0.0122,1.1213,0.0584,-0.0037,-0.0003
8324,0.0608,-0.0120,1.1206,-0.0332,0.0116,-0.0308
8334,0.0581,-0.0120,1.1226,0.0431,0.0421,0.0150
8344,0.0591,-0.0120,1.1267,-0.0943,0.0421,-0.0156
8354,0.0544,-0.0120,1.1208,-0.0790,0.0727,-0.0156
8364,0.0557,-0.0122,1.1257,-0.0790,0.0421,-0.0003
8374,0.0586,-0.0120,1.1245,-0.0485,0.0116,-0.0156
8384,0.0559,-0.0176,1.1260,-0.0027,-0.0342,0.0608
8394,0.0605,-0.0117,1.1284,-0.0332,0.0116,0.0913
8404,0.0576,-0.0168,1.1277,-0.0027,-0.0189,0.0302
8414,0.0627,-0.0151,1.1250,-0.0332,-0.0037,-0.0003
8424,0.0586,-0.0166,1.1260,0.0584,-0.0495,-0.0614
8434,0.0613,-0.0125,1.1204,-0.0332,0.0116,-0.0919
8444,0.0579,-0.0127,1.1216,0.0584,0.0116,-0.0156
8454,0.0598,-0.0110,1.1235,0.0584,0.0421,-0.0614
8464,0.0601,-0.0095,1.1235,0.0737,0.0574,-0.1224
8474,0.0610,-0.0107,1.1270,0.0126,0.0116,0.0455
8484,0.0610,-0.0093,1.1272,-0.0027,-0.0189,0.0455
8494,0.0615,-0.0100,1.1211,-0.0179,0.0727,0.0760
8504,0.0535,-0.0149,1.1333,0.0279,0.0116,0.0302
8514,0.0562,-0.0132,1.1299,-0.0179,0.0116,-0.0156
8524,0.0588,-0.0100,1.1245,0.1042,-0.0495,-0.0003
8534,0.0576,-0.0112,1.1267,0.0584,0.0421,0.0455
8544,0.0591,-0.0112,1.1201,-0.0179,0.0727,0.0760
8554,0.0591,-0.0110,1.1206,-0.0027,-0.0037,0.0302
8564,0.0581,-0.0110,1.1233,-0.0332,-0.0189,0.0608
8574,0.0603,-0.0120,1.1199,-0.0637,0.0421,0.0608
8584,0.0620,-0.0168,1.1292,-0.0637,0.0269,-0.0156
8594,0.0583,-0.0132,1.1250,-0.0332,0.0421,-0.0156
8604,0.0576,-0.0120,1.1221,-0.0790,0.0269,0.0302
8614,0.0608,-0.0161,1.1279,0.0431,-0.0189,0.0302
8624,0.0603,-0.0110,1.1284,0.0279,0.0574,-0.0308
8634,0.0588,-0.0127,1.1230,0.0431,0.0269,-0.0156
8644,0.0598,-0.0107,1.1221,-0.0027,-0.0495,-0.0003
8654,0.0601,-0.0139,1.1252,0.0737,-0.0647,0.0913
8664,0.0618,-0.0073,1.1248,-0.0027,0.0727,0.0455
8674,0.0566,-0.0139,1.1238,0.0889,-0.0342,0.0608
8684,0.0576,-0.0083,1.1235,-0.0027,0.0879,-0.0156
8694,0.0566,-0.0151,1.1267,-0.0027,0.0574,0.0150
8704,0.0571,-0.0149,1.1230,-0.0027,0.0574,-0.0003
8714,0.0554,-0.0125,1.1245,-0.0332,0.0574,-0.0308
8724,0.0540,-0.0134,1.1206,-0.0485,0.0421,-0.0461
8734,0.0537,-0.0154,1.1223,-0.0790,0.0421,-0.0308
8744,0.0591,-0.0129,1.1257,-0.0943,0.0421,-0.0308
8754,0.0562,-0.0120,1.1204,-0.0179,-0.0189,-0.0461
8764,0.0574,-0.0164,1.1238,0.0126,0.0116,-0.0766
8774,0.0576,-0.0122,1.1223,-0.0179,0.0269,-0.0156
8784,0.0586,-0.0139,1.1216,0.0279,0.0116,-0.0766
8794,0.0583,-0.0142,1.1228,-0.0179,-0.0800,-0.0156
8804,0.0608,-0.0149,1.1230,-0.0027,-0.0953,0.0455
8814,0.0632,-0.0117,1.1272,0.0126,0.0116,0.0150
8824,0.0598,-0.0085,1.1318,0.0584,-0.0189,0.0302
8834,0.0576,-0.0132,1.1255,-0.0027,0.0421,-0.0003
8844,0.0544,-0.0122,1.1277,-0.1095,-0.0037,-0.0156
8854,0.0581,-0.0139,1.1267,-0.0790,-0.0037,-0.1224
8864,0.0549,-0.0095,1.1228,-0.0027,0.0269,0.0455
8874,0.0562,-0.0125,1.1309,-0.0027,0.0116,0.0608
8884,0.0591,-0.0093,1.1196,0.0737,-0.0189,-0.0156
8894,0.0583,-0.0117,1.1223,0.0584,0.0269,0.0302
8904,0.0610,-0.0161,1.1204,-0.0027,-0.0342,-0.0003
8914,0.0554,-0.0142,1.1221,-0.0027,0.0727,-0.0156
8924,0.0588,-0.0146,1.1245,-0.0332,0.1032,-0.0308
8934,0.0569,-0.0127,1.1255,-0.0485,0.0574,-0.0919
8944,0.0627,-0.0154,1.1221,0.0126,0.0269,-0.1072
8954,0.0588,-0.0110,1.1206,-0.0027,0.0421,-0.0156
8964,0.0627,-0.0098,1.1243,-0.0637,0.0421,0.0150
8974,0.0596,-0.0154,1.1211,0.0889,0.0727,-0.0003
8984,0.0601,-0.0122,1.1201,0.0737,-0.0342,-0.0156
8994,0.0627,-0.0173,1.1199,-0.0179,-0.0037,-0.0156
9004,0.0559,-0.0132,1.1260,0.0126,0.0727,-0.0308
9014,0.0581,-0.0078,1.1240,0.0126,-0.0037,0.0455
9024,0.0554,-0.0110,1.1270,-0.0637,-0.0189,0.0608
9034,0.0549,-0.0093,1.1196,0.0737,0.0727,-0.0461
9044,0.0562,-0.0125,1.1240,0.1042,0.1032,0.0302
9054,0.0593,-0.0127,1.1199,0.0889,0.0269,0.0760
9064,0.0569,-0.0137,1.1221,0.0889,-0.0189,0.1676
9074,0.0610,-0.0137,1.1228,0.0126,0.0116,0.0913
9084,0.0581,-0.0156,1.1228,-0.1095,-0.0495,0.0455
9094,0.0610,-0.0134,1.1230,0.0126,0.0421,0.0455
9104,0.0608,-0.0139,1.1208,-0.0790,-0.0342,0.0760
9114,0.0605,-0.0122,1.1257,-0.0179,0.0727,0.0608
9124,0.0591,-0.0120,1.1260,0.0126,0.0574,-0.0766
9134,0.0610,-0.0151,1.1272,0.0584,0.0421,0.0455
9144,0.0625,-0.0186,1.1292,0.0126,0.0574,0.0150
9154,0.0564,-0.0146,1.1284,-0.0027,0.0727,-0.0614
9164,0.0601,-0.0120,1.1243,0.0431,0.0879,-0.0156
9174,0.0613,-0.0137,1.1208,0.0279,0.0574,-0.0766
9184,0.0574,-0.0122,1.1260,-0.0485,0.0574,-0.0003
9194,0.0596,-0.0137,1.1243,0.0584,-0.0189,0.1066
9204,0.0593,-0.0125,1.1243,0.0889,0.0269,0.0455
9214,0.0562,-0.0132,1.1216,0.0737,-0.0189,0.0302
9224,0.0569,-0.0134,1.1216,-0.0027,0.0269,-0.0461
9234,0.0559,-0.0103,1.1206,-0.0790,0.0269,0.0150
9244,0.0586,-0.0105,1.1240,-0.0027,0.0574,-0.0156
9254,0.0576,-0.0134,1.1199,-0.0027,-0.0037,0.0302
9264,0.0583,-0.0117,1.1187,-0.0027,-0.0037,0.1218
9274,0.0579,-0.0107,1.1157,-0.0332,0.0269,0.0455
9284,0.0591,-0.0144,1.1216,0.0279,0.0574,-0.0003
9294,0.0623,-0.0125,1.1204,-0.0179,0.0269,0.0760
9304,0.0581,-0.0166,1.1218,0.0279,0.0116,0.0913
9314,0.0576,-0.0137,1.1238,0.0584,0.0574,-0.0156
9324,0.0615,-0.0159,1.1294,-0.0027,0.0879,0.0302
9334,0.0583,-0.0142,1.1184,-0.0027,0.0727,0.0608
9344,0.0549,-0.0100,1.1267,0.0584,0.1185,0.0455
9354,0.0620,-0.0115,1.1284,0.1195,0.0269,0.0302
9364,0.0557,-0.0103,1.1282,0.0584,-0.0495,-0.0156
9374,0.0579,-0.0168,1.1226,0.0126,0.0574,-0.0614
9384,0.0559,-0.0176,1.1250,-0.0027,0.0727,0.0455
9394,0.0569,-0.0127,1.1250,0.0279,-0.0189,0.0913
9404,0.0564,-0.0085,1.1260,0.0279,0.0116,0.0455
9414,0.0566,-0.0100,1.1196,0.0279,0.0421,-0.0003
9424,0.0605,-0.0129,1.1189,0.0126,0.0421,0.0150
9434,0.0591,-0.0146,1.1184,0.0126,0.0269,-0.0766
9444,0.0574,-0.0120,1.1282,-0.0790,0.1185,-0.0308
9454,0.0574,-0.0120,1.1277,-0.0485,0.0574,-0.0461
9464,0.0596,-0.0122,1.1279,-0.0485,0.0269,-0.1072
9474,0.0586,-0.0142,1.1230,-0.0485,-0.0189,0.0150
9484,0.0596,-0.0151,1.1199,-0.0179,0.0421,0.0455
9494,0.0627,-0.0159,1.1245,0.0279,-0.0342,0.0455
9504,0.0586,-0.0132,1.1267,0.0279,0.0269,-0.0614
9514,0.0588,-0.0120,1.1238,0.0126,-0.0037,-0.0614
9524,0.0559,-0.0154,1.1235,-0.0027,0.0574,-0.0461
9534,0.0549,-0.0144,1.1208,0.0279,-0.0189,-0.0766
9544,0.0601,-0.0139,1.1182,0.1195,-0.0037,0.0302
9554,0.0642,-0.0110,1.1240,0.0431,-0.0037,-0.0003
9564,0.0571,-0.0149,1.1218,0.0584,0.0269,-0.0766
9574,0.0596,-0.0125,1.1287,-0.0637,0.0116,0.0455
9584,0.0588,-0.0117,1.1221,-0.0027,0.0116,0.0150
9594,0.0527,-0.0149,1.1233,-0.0027,0.0269,-0.0156
9604,0.0547,-0.0122,1.1208,-0.0790,0.1032,0.0455
9614,0.0581,-0.0112,1.1265,-0.0485,0.0727,0.0302
9624,0.0562,-0.0129,1.1235,0.0279,0.0116,0.0608
9634,0.0564,-0.0093,1.1272,-0.0179,0.0421,0.0302
9644,0.0598,-0.0156,1.1238,0.0126,-0.0647,-0.0308
9654,0.0598,-0.0139,1.1191,0.0431,-0.0037,-0.0308
9664,0.0579,-0.0166,1.1260,0.0737,0.0421,-0.0461
9674,0.0613,-0.0139,1.1252,0.0279,0.0421,-0.0461
9684,0.0603,-0.0190,1.1260,-0.0332,-0.0037,-0.0156
9694,0.0632,-0.0156,1.1265,-0.0637,-0.0037,0.0608
9704,0.0557,-0.0144,1.1250,0.0431,-0.0953,-0.0156
9714,0.0588,-0.0154,1.1221,0.0279,-0.0189,-0.0156
9724,0.0647,-0.0137,1.1240,0.0279,-0.0495,0.0302
9734,0.0596,-0.0132,1.1233,0.0889,0.0879,-0.0003
9744,0.0566,-0.0151,1.1226,0.0584,0.0879,-0.1377
9754,0.0564,-0.0078,1.1201,-0.0027,0.1185,-0.1224
9764,0.0586,-0.0151,1.1245,-0.0485,0.0879,-0.0766
9774,0.0562,-0.0115,1.1191,-0.0332,-0.0037,-0.0308
9784,0.0623,-0.0100,1.1284,-0.0485,-0.0189,-0.0308
9794,0.0542,-0.0142,1.1223,-0.0027,-0.0342,0.0302
9804,0.0562,-0.0107,1.1179,0.0126,-0.0342,-0.0308
9814,0.0549,-0.0137,1.1201,0.0431,-0.0189,0.0455
9824,0.0623,-0.0137,1.1206,-0.0790,0.0116,-0.0461
9834,0.0613,-0.0134,1.1260,-0.0027,-0.0495,0.0455
9844,0.0598,-0.0129,1.1187,-0.0332,-0.0189,0.0302
9854,0.0554,-0.0137,1.1243,-0.0027,-0.0495,-0.0156
9864,0.0620,-0.0142,1.1199,-0.0179,0.0421,-0.0156
9874,0.0605,-0.0115,1.1245,0.0279,-0.0189,-0.0461
9884,0.0559,-0.0112,1.1213,-0.0485,0.0879,-0.1072
9894,0.0586,-0.0115,1.1260,-0.0179,0.0727,0.0608
9904,0.0620,-0.0100,1.1213,0.0584,-0.0037,0.0455
9914,0.0588,-0.0154,1.1277,0.0126,0.0574,0.0302
9924,0.0569,-0.0161,1.1235,0.0279,0.0269,0.0760
9934,0.0559,-0.0083,1.1223,0.0431,0.0116,0.0455
9944,0.0571,-0.0144,1.1189,-0.0179,0.0269,0.0302
9954,0.0562,-0.0117,1.1265,-0.0332,0.0116,0.0760
9964,0.0540,-0.0127,1.1284,-0.0179,-0.0189,0.0150
9974,0.0554,-0.0122,1.1235,-0.0179,-0.0037,0.0608
9984,0.0620,-0.0166,1.1313,0.0584,-0.0342,0.0760
9994,0.0586,-0.0112,1.1226,0.0889,0.0116,-0.0614
10004,0.0591,-0.0139,1.1230,0.0279,-0.0189,-0.0156
10014,0.0576,-0.0159,1.1277,-0.0179,0.0269,-0.0766
10024,0.0586,-0.0122,1.1287,0.0126,0.0269,0.0150
10034,0.0574,-0.0120,1.1184,0.0279,-0.0342,-0.0461
10044,0.0576,-0.0156,1.1233,0.0279,0.0116,-0.0003
10054,0.0579,-0.0103,1.1240,-0.0027,-0.0495,0.0150
10064,0.0601,-0.0129,1.1277,0.0431,0.0574,0.0150
10074,0.0562,-0.0078,1.1233,-0.0332,0.0116,-0.0308
10084,0.0588,-0.0149,1.1245,0.1195,0.0269,0.0455
10094,0.0581,-0.0142,1.1184,0.0279,0.0116,0.0608
10104,0.0608,-0.0115,1.1267,-0.0637,-0.0342,0.0455
10114,0.0615,-0.0146,1.1218,0.0279,-0.0189,-0.0156
10124,0.0593,-0.0125,1.1235,-0.0179,0.0116,-0.0919
10134,0.0571,-0.0159,1.1279,-0.0027,0.0116,0.0150
10144,0.0583,-0.0110,1.1221,0.0126,0.0116,0.0302
10154,0.0522,-0.0125,1.1270,0.0889,0.0421,-0.0461
10164,0.0576,-0.0110,1.1252,0.0126,0.0116,-0.0156
10174,0.0588,-0.0117,1.1250,-0.0637,-0.0342,-0.0003
10184,0.0537,-0.0137,1.1250,-0.0332,0.0269,-0.0003
10194,0.0593,-0.0159,1.1206,0.0279,-0.0647,0.0302
10204,0.0598,-0.0098,1.1177,0.0584,0.0269,0.0608
10214,0.0615,-0.0129,1.1243,-0.0332,0.0269,0.0302
10224,0.0579,-0.0120,1.1226,-0.0332,-0.0189,-0.0308
10234,0.0562,-0.0103,1.1223,-0.0332,-0.0037,0.0455
10244,0.0601,-0.0149,1.1196,-0.0179,0.0727,0.0150
10254,0.0547,-0.0142,1.1284,-0.0027,0.0116,-0.0003
10264,0.0569,-0.0103,1.1277,0.0126,-0.0189,-0.0308
10274,0.0603,-0.0122,1.1216,0.0431,-0.0037,-0.0308
10284,0.0591,-0.0139,1.1265,0.0584,-0.0495,-0.0003
10294,0.0605,-0.0098,1.1260,0.0279,-0.0342,-0.0614
10304,0.0581,-0.0117,1.1238,-0.0027,-0.0495,-0.0003
10314,0.0598,-0.0112,1.1187,0.0279,-0.0495,-0.0003
10324,0.0564,-0.0117,1.1167,0.0126,-0.0647,0.0913
10334,0.0613,-0.0122,1.1299,0.0431,-0.0647,-0.0308
10344,0.0627,-0.0166,1.1248,-0.0485,0.0116,0.0608
10354,0.0640,-0.0137,1.1245,0.0431,-0.0189,-0.0614
10364,0.0554,-0.0151,1.1169,-0.0179,0.0116,0.0302
10374,0.0544,-0.0122,1.1277,-0.0027,0.0116,0.0150
10384,0.0579,-0.0125,1.1230,0.0431,-0.0037,-0.0308
10394,0.0549,-0.0161,1.1243,-0.0179,-0.0037,-0.0156
10404,0.0557,-0.0110,1.1216,-0.0332,-0.0037,-0.0461
10414,0.0552,-0.0166,1.1211,0.0279,0.0574,-0.0003
10424,0.0571,-0.0122,1.1194,-0.0027,0.0116,-0.0461
10434,0.0608,-0.0137,1.1279,0.0737,0.0727,-0.0614
10444,0.0542,-0.0115,1.1262,0.0431,-0.0037,0.0455
10454,0.0583,-0.0181,1.1196,0.0737,0.0421,0.0302
10464,0.0601,-0.0127,1.1189,-0.0027,-0.0189,-0.0003
10474,0.0579,-0.0098,1.1248,0.0126,-0.0495,0.0302
10484,0.0615,-0.0098,1.1208,0.0279,-0.1105,0.0608
10494,0.0598,-0.0068,1.1211,-0.0027,-0.0342,0.0608
10504,0.0571,-0.0088,1.1228,0.0584,-0.0647,0.0150
10514,0.0586,-0.0066,1.1211,0.0431,-0.0037,-0.0003
10524,0.0566,-0.0115,1.1243,0.0126,0.0116,0.0150
10534,0.0579,-0.0139,1.1194,-0.0485,0.0116,-0.0461
10544,0.0586,-0.0127,1.1213,-0.0790,0.0421,-0.0003
10554,0.0530,-0.0156,1.1289,-0.0179,0.0727,-0.0003
10564,0.0574,-0.0186,1.1223,0.0889,-0.0037,-0.0003
10574,0.0576,-0.0103,1.1213,0.0584,0.0574,-0.0156
10584,0.0593,-0.0134,1.1250,0.0126,0.0727,0.0455
10594,0.0569,-0.0122,1.1238,0.0584,0.0269,-0.0156
10604,0.0603,-0.0173,1.1182,0.0279,-0.0189,-0.0156
10614,0.0571,-0.0115,1.1189,-0.0179,-0.0189,-0.0156
10624,0.0610,-0.0105,1.1204,0.0126,0.0269,-0.0308
10634,0.0610,-0.0132,1.1179,-0.0332,-0.0189,-0.0766
10644,0.0615,-0.0093,1.1208,-0.0027,-0.0189,-0.0308
10654,0.0601,-0.0093,1.1206,0.0584,-0.0495,0.0150
10664,0.0593,-0.0107,1.1187,0.0279,-0.0342,-0.0003
10674,0.0588,-0.0095,1.1235,-0.0485,0.0269,-0.0308
10684,0.0574,-0.0110,1.1228,-0.1095,-0.0037,-0.0308
10694,0.0608,-0.0120,1.1182,-0.0027,0.0116,0.0150
10704,0.0583,-0.0095,1.1218,0.0279,0.0421,0.0150
10714,0.0576,-0.0134,1.1279,-0.0485,0.0421,-0.0003
10724,0.0591,-0.0176,1.1230,-0.0637,0.1185,0.0455
10734,0.0562,-0.0137,1.1189,-0.0485,0.0574,-0.0461
10744,0.0554,-0.0132,1.1301,-0.1248,-0.0037,0.0150
10754,0.0562,-0.0168,1.1223,-0.0637,-0.0189,-0.0308
10764,0.0605,-0.0151,1.1191,0.0126,-0.0037,0.0302
10774,0.0544,-0.0159,1.1289,0.0431,-0.0189,0.0150
10784,0.0610,-0.0151,1.1211,0.0279,-0.0037,0.0150
10794,0.0603,-0.0112,1.1221,-0.0179,-0.0953,-0.0614
10804,0.0610,-0.0115,1.1228,-0.0027,-0.0189,-0.0156
10814,0.0591,-0.0112,1.1211,0.0126,-0.0342,0.0150
10824,0.0566,-0.0125,1.1262,0.1195,0.0116,0.0302
10834,0.0552,-0.0095,1.1216,0.0584,0.0269,0.0150
10844,0.0557,-0.0129,1.1208,0.0737,0.0116,-0.0766
10854,0.0583,-0.0139,1.1262,-0.0332,0.0116,0.1066
10864,0.0542,-0.0117,1.1257,-0.0179,0.0574,0.0302
10874,0.0574,-0.0144,1.1260,0.0126,0.0421,0.0150
10884,0.0576,-0.0137,1.1292,0.0279,-0.0189,0.0150
10894,0.0603,-0.0125,1.1240,0.0126,-0.0342,0.0150
10904,0.0581,-0.0122,1.1221,0.0584,0.0727,0.0608
10914,0.0588,-0.0146,1.1250,0.0126,0.0421,0.0608
10924,0.0571,-0.0134,1.1272,-0.0027,-0.0037,-0.0003
10934,0.0557,-0.0134,1.1223,-0.0027,0.0116,-0.0308
10944,0.0562,-0.0122,1.1248,0.0737,0.0269,0.0608
10954,0.0564,-0.0144,1.1255,0.0431,-0.0342,0.0302
10964,0.0623,-0.0161,1.1240,0.0126,0.0421,0.0455
10974,0.0562,-0.0142,1.1296,0.0126,0.0574,-0.0156
10984,0.0593,-0.0107,1.1191,-0.0179,-0.0037,-0.0156
10994,0.0598,-0.0122,1.1199,0.0126,0.0269,0.0302
11004,0.0576,-0.0151,1.1172,0.0279,-0.0495,0.0150
11014,0.0566,-0.0129,1.1221,0.0737,-0.0495,0.0455
11024,0.0601,-0.0171,1.1267,-0.1248,-0.0342,-0.0614
11034,0.0549,-0.0122,1.1223,-0.0027,-0.0037,-0.0156
11044,0.0630,-0.0125,1.1201,-0.0637,0.0116,-0.0308
11054,0.0571,-0.0139,1.1189,-0.0790,0.0269,0.0150
11064,0.0579,-0.0142,1.1252,0.0126,0.0574,-0.0156
11074,0.0583,-0.0125,1.1282,0.0431,0.0421,0.0150
11084,0.0576,-0.0090,1.1267,-0.0027,0.0116,0.0150
11094,0.0566,-0.0110,1.1221,0.0279,-0.0495,-0.0156
11104,0.0564,-0.0120,1.1201,-0.0179,-0.0342,-0.0308
11114,0.0569,-0.0127,1.1238,0.0279,0.0269,-0.0156
11124,0.0559,-0.0081,1.1233,0.0737,-0.0495,-0.0308
11134,0.0564,-0.0151,1.1221,0.0584,-0.0037,-0.0156
11144,0.0576,-0.0142,1.1245,-0.0027,-0.0037,0.0455
11154,0.0601,-0.0149,1.1213,-0.0485,-0.0037,0.0302
11164,0.0586,-0.0142,1.1191,0.0431,0.1032,0.0302
11174,0.0562,-0.0100,1.1277,-0.0637,0.0727,-0.0766
11184,0.0542,-0.0132,1.1257,0.0431,-0.0189,-0.0003
11194,0.0601,-0.0144,1.1245,-0.0332,-0.0495,-0.1072
11204,0.0583,-0.0117,1.1238,-0.0637,0.0269,-0.0156
11214,0.0569,-0.0149,1.1326,-0.0027,-0.0342,0.0150
11224,0.0596,-0.0112,1.1196,0.0126,-0.0342,0.0455
11234,0.0618,-0.0139,1.1245,0.0126,-0.0037,0.0302
11244,0.0608,-0.0100,1.1191,-0.0179,0.0269,0.0302
11254,0.0613,-0.0103,1.1245,-0.0790,-0.0037,0.0150
11264,0.0593,-0.0117,1.1262,-0.0179,-0.0189,0.0302
11274,0.0537,-0.0095,1.1216,0.0431,0.0574,-0.0766
11284,0.0579,-0.0098,1.1223,-0.0179,0.0116,-0.0308
11294,0.0593,-0.0120,1.1262,0.0279,-0.0037,-0.0461
11304,0.0569,-0.0159,1.1216,-0.0332,0.0421,-0.0156
11314,0.0586,-0.0122,1.1194,-0.0485,0.0116,0.0150
11324,0.0603,-0.0166,1.1206,-0.0027,0.0116,-0.0308
11334,0.0608,-0.0112,1.1240,0.0126,0.0574,0.0455
11344,0.0588,-0.0156,1.1213,-0.0179,0.0574,0.0608
11354,0.0593,-0.0142,1.1189,-0.0485,0.0574,0.0455
11364,0.0591,-0.0117,1.1270,-0.0027,-0.0342,-0.0156
11374,0.0564,-0.0078,1.1206,0.0279,-0.0189,-0.0156
11384,0.0581,-0.0139,1.1267,-0.0485,0.0116,-0.0156
11394,0.0608,-0.0112,1.1223,-0.0332,-0.0037,0.0150
11404,0.0593,-0.0164,1.1187,-0.0027,0.0269,0.0302
11414,0.0608,-0.0117,1.1211,0.0584,-0.0037,-0.0614
11424,0.0659,-0.0149,1.1204,0.0889,0.0116,-0.0461
11434,0.0583,-0.0125,1.1230,0.0584,0.0727,-0.1072
11444,0.0571,-0.0105,1.1255,0.0737,0.0574,-0.1377
11454,0.0571,-0.0127,1.1248,0.0584,-0.0342,-0.0461
11464,0.0579,-0.0098,1.1230,0.0431,-0.0189,0.0150
11474,0.0579,-0.0105,1.1177,0.0431,-0.0037,-0.0003
11484,0.0574,-0.0100,1.1218,-0.0485,0.0574,-0.0003
11494,0.0598,-0.0115,1.1240,-0.0790,-0.0342,-0.0003
11504,0.0581,-0.0127,1.1194,-0.0943,-0.0495,-0.0003
11514,0.0640,-0.0127,1.1221,-0.0943,0.0269,0.0150
11524,0.0564,-0.0142,1.1223,-0.0027,0.0574,0.0150
11534,0.0569,-0.0112,1.1206,0.0584,0.0879,0.0455
11544,0.0591,-0.0176,1.1277,-0.0332,0.0421,0.0608
11554,0.0593,-0.0129,1.1255,-0.0790,-0.0037,0.0608
11564,0.0579,-0.0129,1.1233,-0.1095,-0.0037,0.0455
11574,0.0603,-0.0122,1.1279,0.0126,-0.0037,0.0608
11584,0.0623,-0.0146,1.1204,0.0584,0.0574,-0.0003
11594,0.0613,-0.0149,1.1230,0.1042,0.0727,-0.0614
11604,0.0588,-0.0137,1.1199,0.0431,0.0727,-0.0003
11614,0.0554,-0.0100,1.1216,-0.0179,0.0879,-0.0003
11624,0.0527,-0.0095,1.1267,0.0126,0.0269,-0.0156
11634,0.0525,-0.0090,1.1216,0.0279,0.0116,-0.0003
11644,0.0574,-0.0073,1.1233,0.0584,-0.0189,0.0302
11654,0.0542,-0.0039,1.1179,0.0279,0.0574,-0.0003
11664,0.0586,-0.0103,1.1248,0.0431,0.0421,0.0150
11674,0.0588,-0.0127,1.1245,0.0126,-0.0037,-0.0308
11684,0.0586,-0.0149,1.1206,0.0126,-0.0800,0.0760
11694,0.0576,-0.0134,1.1277,-0.0637,-0.0342,-0.0003
11704,0.0583,-0.0134,1.1184,-0.0485,-0.0189,0.0150
11714,0.0610,-0.0159,1.1235,-0.0485,-0.0189,-0.0156
11724,0.0588,-0.0137,1.1255,-0.0790,0.0574,-0.0461
11734,0.0571,-0.0164,1.1250,-0.0179,-0.0037,-0.1072
11744,0.0586,-0.0171,1.1213,0.0279,0.0116,0.0302
11754,0.0596,-0.0161,1.1199,0.1042,-0.0189,0.0302
11764,0.0610,-0.0098,1.1240,0.1347,0.0269,0.0455
11774,0.0608,-0.0166,1.1282,0.0431,0.0421,-0.0156
11784,0.0566,-0.0105,1.1260,0.0279,0.0879,0.0913
11794,0.0549,-0.0090,1.1201,0.0431,-0.0189,-0.0156
11804,0.0566,-0.0139,1.1199,0.0126,0.0269,0.0150
11814,0.0542,-0.0078,1.1274,-0.0179,0.0269,-0.0003
11824,0.0591,-0.0107,1.1262,-0.0027,-0.0342,-0.0156
11834,0.0591,-0.0132,1.1204,0.0279,-0.0647,0.0150
11844,0.0586,-0.0073,1.1206,-0.0027,-0.0495,0.0760
11854,0.0618,-0.0137,1.1245,-0.0332,-0.0037,-0.0003
11864,0.0596,-0.0154,1.1238,-0.0943,-0.0037,0.0455
11874,0.0596,-0.0115,1.1206,-0.0943,0.0574,-0.0461
11884,0.0574,-0.0151,1.1211,-0.0485,0.0269,-0.0614
11894,0.0564,-0.0168,1.1226,-0.0027,0.0574,-0.0614
11904,0.0540,-0.0129,1.1255,0.0279,0.0421,0.0150
11914,0.0583,-0.0156,1.1250,-0.0027,0.0574,-0.0461
11924,0.0581,-0.0125,1.1248,-0.0943,-0.0495,0.0302
11934,0.0562,-0.0149,1.1204,-0.0790,-0.0189,0.0608
11944,0.0630,-0.0137,1.1248,-0.0332,0.0116,0.0302
11954,0.0615,-0.0134,1.1240,0.0279,0.0421,0.0302
11964,0.0583,-0.0137,1.1260,0.0126,0.0421,-0.0156
11974,0.0540,-0.0120,1.1240,0.0584,-0.0037,-0.0614
11984,0.0566,-0.0103,1.1292,0.0889,-0.0342,0.0302
11994,0.0505,-0.0083,1.1262,0.0431,0.0421,-0.0461
12004,0.0564,-0.0161,1.1196,-0.0027,0.0421,-0.0003
12014,0.0618,-0.0100,1.1230,0.0126,0.0116,-0.0308
12024,0.0596,-0.0115,1.1238,-0.0332,0.0269,0.1218
12034,0.0537,-0.0125,1.1206,-0.0790,0.0269,0.1371
12044,0.0559,-0.0142,1.1257,-0.0637,-0.0342,0.0150
12054,0.0591,-0.0156,1.1228,-0.0179,-0.0495,0.0455
12064,0.0579,-0.0134,1.1252,0.0279,0.0269,-0.0308
12074,0.0581,-0.0127,1.1201,-0.0485,0.0269,0.0150
12084,0.0586,-0.0115,1.1194,-0.0332,-0.0037,0.0455
12094,0.0581,-0.0127,1.1274,-0.0332,0.0116,0.0608
12104,0.0559,-0.0103,1.1267,-0.0485,-0.0189,-0.0003
12114,0.0596,-0.0137,1.1196,-0.0943,-0.0037,-0.0156
12124,0.0588,-0.0149,1.1235,-0.0637,0.0421,-0.0614
12134,0.0544,-0.0129,1.1199,-0.0485,0.1032,-0.0614
12144,0.0566,-0.0139,1.1277,0.0584,0.0269,-0.0003
12154,0.0591,-0.0127,1.1262,0.0279,0.0116,0.0760
12164,0.0552,-0.0122,1.1240,-0.0179,0.0269,0.0302
12174,0.0588,-0.0120,1.1243,-0.0332,0.0269,0.0302
12184,0.0574,-0.0115,1.1221,-0.0027,0.0269,0.0150
12194,0.0593,-0.0100,1.1191,-0.0027,-0.0342,-0.0461
12204,0.0564,-0.0095,1.1272,0.0431,-0.0037,-0.0308
12214,0.0552,-0.0112,1.1311,0.0431,0.0269,-0.0003
12224,0.0574,-0.0105,1.1260,-0.0790,0.0269,0.1218
12234,0.0554,-0.0127,1.1270,-0.0637,0.0727,0.0302
12244,0.0552,-0.0095,1.1265,-0.0179,0.0269,0.0150
12254,0.0569,-0.0139,1.1221,-0.0332,-0.1258,0.0913
12264,0.0598,-0.0122,1.1172,0.0126,-0.0647,-0.0003
12274,0.0564,-0.0120,1.1218,0.0431,-0.0495,-0.0614
12284,0.0574,-0.0112,1.1235,0.0279,-0.0189,-0.0919
12294,0.0579,-0.0154,1.1277,0.0126,-0.0495,-0.0003
12304,0.0588,-0.0156,1.1248,-0.0179,-0.0342,0.0302
12314,0.0608,-0.0134,1.1199,0.0431,-0.0800,-0.0003
12324,0.0574,-0.0125,1.1248,0.0126,-0.0037,0.1066
12334,0.0637,-0.0122,1.1216,-0.0332,-0.0342,-0.0003
12344,0.0588,-0.0156,1.1199,0.0126,0.0269,-0.0461
12354,0.0583,-0.0081,1.1257,0.0126,0.0116,-0.0003
12364,0.0571,-0.0146,1.1228,-0.0485,0.0421,-0.0766
12374,0.0581,-0.0129,1.1223,0.0279,0.0116,-0.0919
12384,0.0591,-0.0134,1.1206,-0.0179,0.0574,-0.1072
12394,0.0593,-0.0132,1.1262,-0.0027,-0.0342,-0.0308
12404,0.0579,-0.0137,1.1238,-0.0485,-0.0647,-0.0766
12414,0.0591,-0.0129,1.1211,-0.0485,-0.0342,0.0455
12424,0.0583,-0.0117,1.1194,0.0279,0.0269,-0.0461
12434,0.0586,-0.0132,1.1233,-0.0179,-0.0495,0.0302
12444,0.0562,-0.0166,1.1206,-0.0332,-0.0495,0.0608
12454,0.0593,-0.0159,1.1235,-0.0179,-0.0189,0.0455
12464,0.0549,-0.0112,1.1277,-0.0179,0.1032,-0.0156
12474,0.0603,-0.0110,1.1245,-0.0179,0.0574,-0.0461
12484,0.0559,-0.0134,1.1228,0.0431,0.0727,0.0150
12494,0.0554,-0.0098,1.1184,-0.0027,0.1032,-0.0308
12504,0.0544,-0.0125,1.1279,-0.0332,0.0421,-0.0461
12514,0.0552,-0.0125,1.1289,0.0584,0.0269,-0.0308
12524,0.0554,-0.0125,1.1206,0.0431,-0.0495,-0.0308
12534,0.0591,-0.0093,1.1226,0.0126,-0.0800,0.0150
12544,0.0620,-0.0129,1.1204,0.0431,-0.0189,0.0455
12554,0.0581,-0.0127,1.1267,0.0279,-0.0189,0.0302
12564,0.0608,-0.0120,1.1228,0.0126,-0.0189,0.0760
12574,0.0579,-0.0142,1.1255,-0.0332,-0.0037,0.1371
12584,0.0603,-0.0115,1.1196,-0.0027,-0.0189,0.1371
12594,0.0603,-0.0098,1.1230,-0.0637,0.0116,-0.0003
12604,0.0583,-0.0137,1.1243,-0.0179,0.0116,0.0150
12614,0.0608,-0.0110,1.1211,0.0431,0.0269,-0.0308
12624,0.0613,-0.0168,1.1272,-0.1248,0.0727,-0.0614
12634,0.0576,-0.0120,1.1223,-0.0485,0.0421,-0.0614
12644,0.0576,-0.0110,1.1218,-0.0179,-0.0037,-0.0461
12654,0.0591,-0.0154,1.1287,0.0431,0.0269,0.0150
12664,0.0591,-0.0115,1.1172,0.1042,-0.0189,-0.0156
12674,0.0571,-0.0149,1.1265,0.0584,0.0574,-0.0461
12684,0.0537,-0.0144,1.1194,0.0126,-0.0647,-0.0156
12694,0.0586,-0.0129,1.1270,0.0737,-0.0495,0.0455
12704,0.0603,-0.0117,1.1216,0.0889,-0.0037,-0.0308
12714,0.0605,-0.0159,1.1211,0.0431,0.0421,0.0150
12724,0.0613,-0.0085,1.1257,0.0889,0.0574,-0.0614
12734,0.0601,-0.0127,1.1213,-0.0179,0.0269,-0.0003
12744,0.0574,-0.0112,1.1204,-0.0332,0.0879,0.0913
12754,0.0583,-0.0164,1.1226,0.0126,0.0269,0.0455
12764,0.0591,-0.0142,1.1206,-0.0179,0.0269,-0.0156
12774,0.0591,-0.0154,1.1284,0.0431,-0.0342,0.0302
12784,0.0615,-0.0142,1.1235,0.0737,-0.0037,-0.0156
12794,0.0608,-0.0137,1.1257,-0.0027,0.1185,-0.0156
12804,0.0605,-0.0139,1.1213,0.0431,0.0727,-0.0003
12814,0.0544,-0.0103,1.1270,0.0279,-0.0189,-0.0614
12824,0.0574,-0.0120,1.1265,-0.0027,0.0116,-0.0461
12834,0.0581,-0.0095,1.1245,0.0279,0.0727,-0.0156
12844,0.0571,-0.0125,1.1243,-0.0027,0.0421,0.0150
12854,0.0586,-0.0098,1.1265,-0.0332,-0.0647,-0.0308
12864,0.0576,-0.0115,1.1196,-0.0027,-0.0495,-0.0766
12874,0.0601,-0.0129,1.1228,-0.0179,-0.0189,-0.0156
12884,0.0581,-0.0112,1.1243,0.0126,0.0421,-0.0308
12894,0.0605,-0.0161,1.1265,0.0584,-0.0189,0.0302
12904,0.0566,-0.0139,1.1272,0.0279,0.0269,0.0608
12914,0.0623,-0.0161,1.1250,0.0584,0.0574,-0.0461
12924,0.0613,-0.0149,1.1230,-0.0179,0.0421,0.0150
12934,0.0588,-0.0144,1.1248,-0.0485,0.0269,-0.0003
12944,0.0581,-0.0132,1.1223,0.0279,0.0116,0.0302
12954,0.0601,-0.0151,1.1252,0.0737,0.0269,0.0302
12964,0.0571,-0.0110,1.1255,-0.0485,0.0574,-0.0003
12974,0.0596,-0.0134,1.1248,-0.0332,0.0116,-0.0156
12984,0.0576,-0.0125,1.1216,-0.0179,-0.0189,-0.0003
12994,0.0591,-0.0117,1.1206,-0.0637,0.0269,0.0150
13004,0.0571,-0.0125,1.1257,-0.0790,0.1185,0.0150
13014,0.0557,-0.0132,1.1179,-0.0790,0.0116,-0.0156
13024,0.0601,-0.0112,1.1265,-0.0637,0.0574,-0.0003
13034,0.0562,-0.0154,1.1223,-0.0179,-0.0647,0.0150
13044,0.0586,-0.0105,1.1252,-0.0027,-0.0189,0.0455
13054,0.0615,-0.0129,1.1208,-0.1095,0.0269,0.0455
13064,0.0586,-0.0151,1.1226,-0.0332,0.0421,-0.0003
13074,0.0593,-0.0156,1.1208,-0.1248,-0.0342,-0.0461
13084,0.0591,-0.0137,1.1260,-0.0179,0.0269,-0.0156
13094,0.0554,-0.0156,1.1284,-0.0485,0.1185,-0.0308
13104,0.0540,-0.0139,1.1213,-0.0485,0.0727,-0.0003
13114,0.0583,-0.0127,1.1277,-0.0179,0.0574,0.0150
13124,0.0603,-0.0166,1.1218,-0.0485,0.1032,-0.0003
13134,0.0566,-0.0127,1.1221,-0.0179,0.0269,-0.0919
13144,0.0598,-0.0183,1.1235,-0.0637,0.0574,-0.1072
13154,0.0625,-0.0122,1.1206,-0.0332,0.0727,-0.0461
13164,0.0566,-0.0151,1.1179,0.0279,0.0574,-0.0766
13174,0.0562,-0.0115,1.1218,0.0584,-0.0495,-0.1072
13184,0.0608,-0.0120,1.1206,0.0431,-0.0495,-0.0308
13194,0.0596,-0.0088,1.1194,-0.0485,-0.0189,-0.0003
13204,0.0566,-0.0129,1.1201,-0.0332,-0.0037,-0.0003
13214,0.0588,-0.0127,1.1206,-0.1095,0.0269,-0.0461
13224,0.0610,-0.0100,1.1223,-0.0637,0.0116,-0.0156
13234,0.0637,-0.0156,1.1211,-0.0179,0.0421,-0.0461
13244,0.0569,-0.0129,1.1235,0.0279,0.0879,-0.0919
13254,0.0596,-0.0125,1.1248,-0.0332,0.0116,-0.0308
13264,0.0581,-0.0156,1.1194,-0.0790,-0.0342,-0.0003
13274,0.0591,-0.0144,1.1277,-0.0179,0.0116,0.0150
13284,0.0608,-0.0129,1.1245,0.0431,0.0269,0.0455
13294,0.0588,-0.0085,1.1243,-0.0332,-0.0189,0.0608
13304,0.0608,-0.0100,1.1194,-0.0179,0.0116,-0.0156
13314,0.0610,-0.0127,1.1204,-0.0179,-0.0342,0.0150
13324,0.0571,-0.0122,1.1187,-0.0485,-0.0800,-0.0003
13334,0.0598,-0.0129,1.1248,-0.0332,-0.0189,-0.0308
13344,0.0574,-0.0129,1.1191,-0.0027,-0.0037,-0.0614
13354,0.0571,-0.0115,1.1211,-0.0179,-0.0189,-0.0003
13364,0.0581,-0.0132,1.1282,-0.0485,-0.0495,-0.0156
13374,0.0591,-0.0120,1.1245,0.0584,-0.0495,0.0150
13384,0.0576,-0.0110,1.1233,-0.0027,-0.0037,0.0302
13394,0.0579,-0.0142,1.1179,0.0279,-0.0189,-0.0003
13404,0.0571,-0.0122,1.1238,0.0889,-0.0189,-0.0461
13414,0.0625,-0.0115,1.1243,0.0584,-0.0189,-0.0461
13424,0.0623,-0.0166,1.1204,-0.0179,-0.0342,0.0150
13434,0.0574,-0.0107,1.1226,-0.0332,-0.0037,0.0150
13444,0.0579,-0.0139,1.1277,0.0431,-0.0495,0.0150
13454,0.0603,-0.0132,1.1270,-0.0027,-0.0037,0.0302
13464,0.0552,-0.0161,1.1208,-0.0027,0.0116,-0.0461
13474,0.0610,-0.0142,1.1250,-0.0027,-0.0647,0.0150
13484,0.0608,-0.0122,1.1223,-0.0485,-0.1105,0.0150
13494,0.0601,-0.0127,1.1243,-0.0332,-0.0800,-0.0766
13504,0.0576,-0.0134,1.1252,-0.0332,-0.0800,-0.0308
13514,0.0591,-0.0132,1.1213,-0.0179,0.0269,-0.0461
13524,0.0605,-0.0127,1.1218,-0.0332,-0.0037,0.0150
13534,0.0564,-0.0120,1.1272,-0.0637,-0.0342,-0.0003
13544,0.0615,-0.0098,1.1265,-0.0027,0.0879,-0.1224
13554,0.0608,-0.0125,1.1235,0.0279,0.0421,-0.0156
13564,0.0603,-0.0127,1.1213,0.0126,-0.0647,-0.0156
13574,0.0610,-0.0159,1.1230,0.0279,0.0116,0.0302
13584,0.0569,-0.0103,1.1250,-0.0027,0.0727,0.0302
13594,0.0542,-0.0098,1.1284,-0.0179,0.0421,0.0913
13604,0.0581,-0.0112,1.1233,-0.0179,-0.0189,-0.0308
13614,0.0603,-0.0137,1.1187,-0.0179,-0.0342,-0.0156
13624,0.0596,-0.0127,1.1270,-0.0179,0.0116,-0.0308
13634,0.0581,-0.0095,1.1240,-0.0027,-0.0037,0.0302
13644,0.0547,-0.0112,1.1174,-0.0027,0.0116,-0.0766
13654,0.0571,-0.0154,1.1218,-0.0179,-0.0342,0.0150
13664,0.0605,-0.0137,1.1245,-0.0179,-0.0037,-0.0003
13674,0.0635,-0.0132,1.1245,0.0279,-0.0647,0.0455
13684,0.0593,-0.0125,1.1216,0.0279,-0.0647,0.0302
13694,0.0598,-0.0142,1.1213,-0.1095,0.0421,0.0302
13704,0.0593,-0.0112,1.1211,-0.0637,0.0421,0.0150
13714,0.0630,-0.0093,1.1272,-0.0179,0.0269,0.0150
13724,0.0603,-0.0132,1.1274,0.0279,0.1032,-0.0156
13734,0.0576,-0.0117,1.1245,-0.0179,0.0421,-0.0308
13744,0.0601,-0.0137,1.1248,0.0279,-0.0037,0.0760
13754,0.0591,-0.0132,1.1201,0.0737,-0.0495,0.0455
13764,0.0564,-0.0146,1.1233,0.0889,-0.0495,-0.0461
13774,0.0574,-0.0117,1.1218,-0.0179,-0.0495,0.0455
13784,0.0601,-0.0154,1.1238,0.0279,-0.0953,-0.0156
13794,0.0574,-0.0139,1.1316,-0.0179,-0.0189,0.0760
13804,0.0566,-0.0120,1.1267,0.0279,-0.0189,0.0608
13814,0.0566,-0.0142,1.1147,0.0431,-0.0189,-0.0461
13824,0.0598,-0.0127,1.1213,0.0279,-0.0037,0.0455
13834,0.0547,-0.0110,1.1277,0.0126,-0.0495,0.0302
13844,0.0576,-0.0127,1.1201,-0.0790,-0.0037,-0.0156
13854,0.0613,-0.0144,1.1218,-0.0027,-0.0189,0.0302
13864,0.0596,-0.0139,1.1221,-0.0179,0.0116,-0.0308
13874,0.0581,-0.0164,1.1191,-0.0637,0.0727,0.0150
13884,0.0645,-0.0125,1.1306,-0.0637,0.0574,0.0760
13894,0.0586,-0.0098,1.1218,0.0126,0.0116,0.0608
13904,0.0608,-0.0112,1.1294,0.0737,-0.0342,0.0455
13914,0.0564,-0.0105,1.1265,-0.0179,0.0574,0.0302
13924,0.0603,-0.0146,1.1211,-0.0943,0.0269,-0.0156
13934,0.0618,-0.0127,1.1208,0.0431,0.0421,-0.0766
13944,0.0603,-0.0083,1.1189,0.1042,-0.0037,-0.0308
13954,0.0620,-0.0120,1.1150,0.0126,-0.0189,0.1066
13964,0.0583,-0.0100,1.1150,0.0279,0.0116,-0.0156
13974,0.0583,-0.0127,1.1223,-0.0332,0.0116,0.0302
13984,0.0566,-0.0161,1.1272,-0.0637,-0.0037,0.0760
13994,0.0588,-0.0144,1.1272,-0.0637,-0.0189,-0.0156
14004,0.0598,-0.0161,1.1223,-0.0637,-0.0495,-0.0156
14014,0.0571,-0.0137,1.1235,-0.0179,-0.0189,0.0150
14024,0.0605,-0.0144,1.1243,-0.0332,0.0116,-0.0614
14034,0.0630,-0.0186,1.1240,0.0126,0.0269,-0.0461
14044,0.0603,-0.0125,1.1213,-0.0332,-0.0342,-0.0766
14054,0.0605,-0.0127,1.1201,0.0431,0.0269,0.0455
14064,0.0603,-0.0107,1.1265,0.0431,0.0269,-0.0003
14074,0.0591,-0.0168,1.1250,-0.0485,0.0421,-0.0461
14084,0.0605,-0.0132,1.1279,0.0431,-0.0342,-0.0308
14094,0.0562,-0.0127,1.1211,0.1195,-0.0647,-0.0766
14104,0.0569,-0.0168,1.1204,0.0584,-0.0495,-0.1072
14114,0.0552,-0.0161,1.1228,0.0737,0.0116,0.0150
14124,0.0601,-0.0151,1.1255,0.0431,0.0421,0.0150
14134,0.0569,-0.0098,1.1277,-0.0790,0.0574,-0.0003
14144,0.0593,-0.0115,1.1199,0.0279,-0.0342,-0.0156
14154,0.0605,-0.0107,1.1208,-0.0027,0.0116,-0.0156
14164,0.0562,-0.0115,1.1226,-0.0637,-0.0189,-0.0003
14174,0.0547,-0.0142,1.1257,-0.0179,0.0116,-0.0308
14184,0.0610,-0.0146,1.1228,0.0126,0.0269,0.0913
14194,0.0579,-0.0120,1.1289,0.0126,0.0727,0.0608
14204,0.0554,-0.0144,1.1252,-0.0027,0.0421,0.0913
14214,0.0562,-0.0100,1.1287,0.0279,0.0116,0.0455
14224,0.0591,-0.0142,1.1265,0.0126,-0.0800,0.0913
14234,0.0615,-0.0137,1.1255,0.0431,0.1490,0.0150
14244,0.0581,-0.0117,1.1260,0.0584,0.0116,-0.0461
14254,0.0566,-0.0125,1.1160,-0.0179,0.0269,-0.0614
14264,0.0608,-0.0146,1.1248,0.0279,-0.0953,-0.0308
14274,0.0596,-0.0112,1.1230,0.0279,-0.0037,-0.0461
14284,0.0593,-0.0142,1.1248,-0.1095,0.0269,0.0302
14294,0.0586,-0.0129,1.1235,-0.0179,-0.0037,0.0302
14304,0.0608,-0.0090,1.1216,0.0279,-0.0342,0.0150
14314,0.0605,-0.0107,1.1208,-0.0027,-0.0037,0.0150
14324,0.0593,-0.0117,1.1191,-0.0179,-0.0189,-0.0003
14334,0.0557,-0.0132,1.1277,-0.1095,0.0574,0.0608
14344,0.0623,-0.0156,1.1157,0.0126,0.0116,-0.0308
14354,0.0579,-0.0149,1.1262,-0.0790,-0.0342,-0.0614
14364,0.0571,-0.0149,1.1267,-0.0485,0.0269,-0.0308
14374,0.0581,-0.0173,1.1213,-0.0179,0.1032,-0.0919
14384,0.0581,-0.0190,1.1233,-0.0332,0.0727,-0.0156
14394,0.0625,-0.0125,1.1238,-0.0179,-0.0189,-0.0003
14404,0.0571,-0.0149,1.1243,0.0431,-0.0342,0.0455
14414,0.0623,-0.0146,1.1248,0.0279,0.0574,-0.0003
14424,0.0588,-0.0161,1.1213,0.1195,-0.0189,0.0302
14434,0.0588,-0.0149,1.1243,0.0889,0.0727,0.0760
14444,0.0557,-0.0146,1.1260,0.0279,0.0269,0.0760
14454,0.0537,-0.0139,1.1282,0.0584,0.0269,0.0913
14464,0.0591,-0.0105,1.1284,0.0584,-0.0189,0.0455
14474,0.0581,-0.0081,1.1240,0.0279,-0.0037,-0.0308
14484,0.0557,-0.0149,1.1213,0.0126,-0.0037,-0.0308
14494,0.0564,-0.0146,1.1260,0.0431,0.0116,-0.0614
14504,0.0579,-0.0098,1.1238,0.0737,-0.0037,-0.0461
14514,0.0603,-0.0112,1.1265,-0.0179,0.0116,-0.0156
14524,0.0596,-0.0132,1.1272,0.0279,0.0116,-0.0156
14534,0.0579,-0.0085,1.1257,0.0431,0.0574,0.0302
14544,0.0601,-0.0122,1.1179,0.0584,-0.0189,-0.0308
14554,0.0583,-0.0095,1.1206,-0.0637,0.0269,0.0150
14564,0.0571,-0.0164,1.1284,-0.0943,-0.0342,0.0608
14574,0.0601,-0.0110,1.1260,-0.0485,-0.0647,0.0608
14584,0.0608,-0.0139,1.1189,0.0126,0.0116,-0.0003
14594,0.0601,-0.0127,1.1216,-0.0027,-0.0037,-0.0156
14604,0.0591,-0.0112,1.1294,-0.0485,0.0116,0.0760
14614,0.0581,-0.0134,1.1252,-0.0790,0.0269,-0.0003
14624,0.0598,-0.0137,1.1277,-0.0027,-0.0037,0.0150
14634,0.0579,-0.0107,1.1243,0.0584,0.0727,0.0150
14644,0.0637,-0.0093,1.1331,-0.0027,0.0421,0.0455
14654,0.0576,-0.0154,1.1255,0.0431,0.0269,-0.0156
14664,0.0557,-0.0110,1.1265,-0.0332,0.0574,-0.0308
14674,0.0576,-0.0110,1.1169,-0.0332,0.0421,0.0150
14684,0.0581,-0.0103,1.1267,-0.0027,-0.0037,-0.0461
14694,0.0566,-0.0095,1.1260,-0.0027,-0.0342,-0.0919
14704,0.0623,-0.0134,1.1257,-0.0332,-0.0189,0.0150
14714,0.0603,-0.0117,1.1289,-0.0179,0.0116,-0.0461
14724,0.0576,-0.0149,1.1206,0.0431,0.1032,-0.0461
14734,0.0549,-0.0117,1.1228,0.0584,-0.0189,-0.0919
14744,0.0605,-0.0129,1.1255,0.0737,-0.0647,-0.0614
14754,0.0586,-0.0120,1.1145,0.0279,-0.0189,-0.0614
14764,0.0588,-0.0110,1.1238,0.1042,-0.0189,-0.0614
14774,0.0625,-0.0156,1.1191,-0.0027,0.0116,-0.0003
14784,0.0586,-0.0115,1.1223,-0.0027,-0.0189,-0.0461
14794,0.0605,-0.0115,1.1245,0.0431,0.0116,-0.0614
14804,0.0566,-0.0146,1.1238,-0.0790,0.0879,-0.0461
14814,0.0569,-0.0112,1.1265,0.0126,0.0727,0.0150
14824,0.0574,-0.0120,1.1316,-0.0179,0.0574,-0.0156
14834,0.0537,-0.0117,1.1155,0.0126,0.0421,0.0302
14844,0.0566,-0.0134,1.1243,0.0279,0.0116,0.0302
14854,0.0586,-0.0122,1.1245,-0.0485,-0.0037,-0.0003
14864,0.0552,-0.0134,1.1111,-0.0027,-0.0647,0.0302
14874,0.0652,-0.0129,1.1316,-0.0485,-0.0189,0.0455
14884,0.0557,-0.0115,1.1162,0.0431,-0.0495,-0.0461
14894,0.0593,-0.0183,1.1277,-0.0485,0.0116,-0.0003
14904,0.0608,-0.0122,1.1272,-0.0179,-0.0647,0.0302
14914,0.0627,-0.0137,1.1218,-0.0027,0.0269,0.0455
14924,0.0591,-0.0125,1.1218,0.0584,0.0421,0.1371
14934,0.0637,-0.0151,1.1257,0.0431,0.0727,-0.0003
14944,0.0615,-0.0134,1.1304,0.0279,0.0727,0.0302
14954,0.0610,-0.0134,1.1130,-0.0332,0.0269,0.0302
14964,0.0588,-0.0115,1.1267,-0.0637,0.0727,-0.0308
14974,0.0618,-0.0166,1.1282,0.0126,0.1337,-0.0003
14984,0.0544,-0.0142,1.1216,0.0889,0.0421,-0.0003
14994,0.0569,-0.0125,1.1265,0.0584,0.0574,-0.0461
15004,0.0608,-0.0081,1.1265,-0.0027,0.0421,-0.0156
15014,0.0586,-0.0159,1.1248,0.0279,0.1032,0.0150
15024,0.0569,-0.0117,1.1218,-0.0027,0.1185,0.0302
15034,0.0579,-0.0125,1.1167,-0.0332,-0.0037,0.0150
15044,0.0601,-0.0105,1.1204,-0.0027,-0.0037,-0.0156
15054,0.0583,-0.0151,1.1240,-0.0027,0.0116,-0.0461
15064,0.0605,-0.0149,1.1230,0.0126,0.0727,-0.0614
15074,0.0566,-0.0063,1.1228,-0.0332,-0.0342,-0.0308
15084,0.0591,-0.0093,1.1221,-0.0637,-0.0342,-0.0308
15094,0.0596,-0.0134,1.1270,-0.0485,0.0116,0.0150
15104,0.0605,-0.0166,1.1272,-0.0332,-0.0342,-0.0003
15114,0.0605,-0.0134,1.1243,-0.0179,-0.0342,0.0302
15124,0.0605,-0.0154,1.1155,-0.1095,0.0116,0.0760
15134,0.0620,-0.0137,1.1270,-0.0332,0.0421,0.0302
15144,0.0557,-0.0134,1.1194,0.0431,0.0879,0.0150
15154,0.0569,-0.0173,1.1235,0.1347,0.0727,0.0150
15164,0.0532,-0.0151,1.1130,0.0431,0.0574,0.0150
15174,0.0547,-0.0112,1.1338,-0.0332,0.1185,-0.0003
15184,0.0552,-0.0110,1.1208,-0.0179,0.0879,-0.0766
15194,0.0562,-0.0139,1.1277,0.0126,0.0269,0.0150
15204,0.0586,-0.0129,1.1174,0.0126,0.0116,-0.0308
15214,0.0569,-0.0095,1.1221,-0.0790,0.1337,-0.0156
15224,0.0571,-0.0093,1.1218,-0.0332,-0.0037,0.0608
15234,0.0571,-0.0117,1.1223,-0.0027,0.0116,-0.0003
15244,0.0581,-0.0132,1.1277,0.0279,0.0269,-0.0308
