timestamp_ms,ax,ay,az,gx,gy,gz
3964,-0.9766,-0.0330,0.2400,0.0152,0.0679,-0.0524
3974,-0.9851,-0.0317,0.2410,0.0763,0.0221,0.0392
3984,-0.9849,-0.0322,0.2415,0.1068,0.0679,0.0698
3994,-0.9836,-0.0261,0.2339,0.0763,0.0221,0.1308
4004,-0.9800,-0.0237,0.2329,0.0305,-0.1000,0.0850
4014,-0.9822,-0.0195,0.2397,-0.0001,-0.1000,0.0545
4024,-0.9834,-0.0281,0.2344,-0.0153,-0.1458,0.0850
4034,-0.9844,-0.0220,0.2366,0.0915,-0.2069,0.1461
4044,-0.9841,-0.0242,0.2371,-0.0001,-0.0847,0.2072
4054,-0.9788,-0.0208,0.2354,0.1068,-0.1000,0.1919
4064,-0.9746,-0.0151,0.2356,0.0305,-0.1763,0.1461
4074,-0.9744,-0.0186,0.2349,0.0152,-0.1305,-0.0524
4084,-0.9810,-0.0239,0.2400,-0.0764,0.1290,-0.0829
4094,-0.9883,-0.0234,0.2363,-0.1222,0.3275,-0.1440
4104,-0.9785,-0.0222,0.2383,-0.1222,0.1443,-0.1134
4114,-0.9773,-0.0232,0.2424,0.0152,-0.0389,-0.1898
4124,-0.9783,-0.0266,0.2456,-0.0153,-0.1611,-0.1745
4134,-0.9863,-0.0281,0.2366,-0.0153,-0.1763,-0.0676
4144,-0.9836,-0.0271,0.2373,-0.0764,-0.1305,-0.0066
4154,-0.9792,-0.0244,0.2322,-0.0001,0.0069,-0.0982
4164,-0.9827,-0.0286,0.2361,-0.0153,0.0832,-0.0066
4174,-0.9807,-0.0181,0.2288,-0.0611,-0.0695,-0.0218
4184,-0.9812,-0.0278,0.2351,0.0305,-0.2985,-0.0218
4194,-0.9885,-0.0256,0.2407,-0.0153,-0.2832,0.0698
4204,-0.9858,-0.0266,0.2380,-0.0611,-0.0389,0.0850
4214,-0.9778,-0.0210,0.2356,-0.1527,-0.0389,0.0545
4224,-0.9702,-0.0232,0.2371,-0.0611,-0.0542,-0.0066
4234,-0.9790,-0.0227,0.2388,-0.0459,0.0069,-0.0982
4244,-0.9866,-0.0259,0.2375,0.0305,0.0679,-0.1440
4254,-0.9834,-0.0227,0.2356,-0.0459,0.1595,-0.1287
4264,-0.9866,-0.0225,0.2332,-0.0306,0.0985,-0.0066
4274,-0.9778,-0.0220,0.2375,0.0457,-0.1611,0.0087
4284,-0.9819,-0.0239,0.2344,0.0457,-0.2374,0.0392
4294,-0.9807,-0.0256,0.2329,0.0305,-0.1153,0.0087
4304,-0.9875,-0.0247,0.2380,0.0610,0.0069,0.0087
4314,-0.9834,-0.0264,0.2371,0.0305,-0.0237,-0.0524
4324,-0.9785,-0.0261,0.2390,-0.0306,-0.0389,0.0087
4334,-0.9783,-0.0261,0.2368,0.0915,-0.2374,0.0545
4344,-0.9800,-0.0266,0.2415,0.0763,-0.2069,0.0545
4354,-0.9895,-0.0261,0.2388,0.0152,-0.0237,0.1156
4364,-0.9797,-0.0237,0.2429,0.0152,0.0527,-0.0066
4374,-0.9768,-0.0195,0.2373,-0.0611,-0.0542,0.0240
4384,-0.9780,-0.0222,0.2336,-0.0001,-0.0237,0.0240
4394,-0.9863,-0.0266,0.2329,-0.0611,0.0832,-0.0218
4404,-0.9841,-0.0227,0.2456,-0.0459,0.0527,0.0850
4414,-0.9836,-0.0244,0.2371,-0.0917,0.1137,0.0850
4424,-0.9771,-0.0215,0.2395,-0.0153,-0.0237,-0.0066
4434,-0.9768,-0.0244,0.2373,0.0610,0.0069,-0.0371
4444,-0.9827,-0.0261,0.2351,-0.0153,-0.0237,-0.0676
4454,-0.9946,-0.0266,0.2371,-0.0153,0.1137,-0.1287
4464,-0.9856,-0.0295,0.2375,-0.1375,0.1901,-0.0066
4474,-0.9756,-0.0232,0.2334,-0.0764,-0.0084,0.0240
4484,-0.9792,-0.0208,0.2410,-0.0611,-0.2527,0.0392
4494,-0.9800,-0.0293,0.2351,0.0152,-0.3137,-0.0982
4504,-0.9858,-0.0249,0.2368,0.0610,-0.1763,0.0392
4514,-0.9800,-0.0234,0.2368,0.0610,-0.0847,0.1156
4524,-0.9771,-0.0271,0.2380,0.0763,-0.1000,0.0545
4534,-0.9829,-0.0244,0.2378,-0.0306,-0.0695,0.0240
4544,-0.9819,-0.0222,0.2380,-0.0306,-0.0542,0.0698
4554,-0.9790,-0.0227,0.2378,-0.0306,-0.0237,0.1003
4564,-0.9785,-0.0271,0.2361,0.0152,0.1137,0.1614
4574,-0.9863,-0.0276,0.2378,0.0457,0.1595,0.1156
4584,-0.9863,-0.0295,0.2456,0.0152,0.2359,0.1614
4594,-0.9795,-0.0237,0.2344,0.0457,0.0985,0.1156
4604,-0.9673,-0.0171,0.2373,0.1068,-0.1763,0.1308
4614,-0.9810,-0.0244,0.2334,0.0152,-0.2221,-0.0524
4624,-0.9897,-0.0225,0.2356,-0.0306,0.0832,-0.0371
4634,-0.9832,-0.0239,0.2388,-0.0611,0.2206,0.0087
4644,-0.9749,-0.0200,0.2324,-0.0764,0.1901,-0.0218
4654,-0.9780,-0.0212,0.2329,-0.0306,0.0527,0.0087
4664,-0.9753,-0.0269,0.2407,-0.1069,-0.0084,-0.1287
4674,-0.9800,-0.0254,0.2363,-0.0306,-0.0542,-0.0982
4684,-0.9849,-0.0271,0.2358,-0.0153,0.0527,0.0240
4694,-0.9863,-0.0269,0.2295,0.0152,-0.0237,0.0087
4704,-0.9778,-0.0264,0.2358,-0.0306,-0.2069,-0.0524
4714,-0.9797,-0.0266,0.2341,0.0457,-0.2985,0.0698
4724,-0.9861,-0.0295,0.2488,-0.0001,-0.1916,0.1308
4734,-0.9849,-0.0261,0.2444,0.0152,-0.0542,0.0850
4744,-0.9783,-0.0259,0.2366,0.1068,0.0679,0.0240
4754,-0.9746,-0.0212,0.2358,-0.0306,-0.0695,-0.0066
4764,-0.9761,-0.0247,0.2371,-0.0153,-0.2069,0.0392
4774,-0.9888,-0.0198,0.2383,0.0305,0.0374,0.0087
4784,-0.9802,-0.0198,0.2373,0.0305,0.0221,-0.0218
4794,-0.9778,-0.0166,0.2371,0.0763,-0.0695,0.0087
4804,-0.9819,-0.0217,0.2358,0.0305,-0.0389,-0.0829
4814,-0.9871,-0.0259,0.2397,-0.0306,0.0679,-0.0676
4824,-0.9812,-0.0237,0.2322,0.0152,0.0679,-0.0066
4834,-0.9680,-0.0220,0.2366,-0.0459,-0.2527,0.0087
4844,-0.9778,-0.0259,0.2351,-0.0459,-0.3290,-0.0829
4854,-0.9990,-0.0325,0.2422,-0.0611,0.0221,-0.0524
4864,-0.9866,-0.0310,0.2454,-0.0001,0.2053,0.0545
4874,-0.9729,-0.0278,0.2402,0.0763,0.0985,0.0850
4884,-0.9707,-0.0249,0.2280,0.0763,-0.0237,0.0392
4894,-0.9761,-0.0276,0.2366,0.0152,-0.1153,-0.0829
4904,-0.9878,-0.0288,0.2366,-0.0001,0.0374,-0.0676
4914,-0.9844,-0.0237,0.2417,-0.0917,0.0221,0.0240
4924,-0.9807,-0.0227,0.2439,-0.0001,0.0679,0.0545
4934,-0.9741,-0.0198,0.2349,0.1068,-0.1458,0.0698
4944,-0.9817,-0.0229,0.2375,0.0305,-0.2527,0.0240
4954,-0.9819,-0.0220,0.2412,0.0763,-0.3290,0.0698
4964,-0.9846,-0.0249,0.2383,0.0457,-0.1305,0.0698
4974,-0.9841,-0.0232,0.2288,-0.0153,0.1137,-0.0371
4984,-0.9780,-0.0264,0.2358,0.0305,0.0679,0.0392
4994,-0.9785,-0.0227,0.2388,-0.0306,0.0221,-0.0218
5004,-0.9773,-0.0222,0.2373,-0.0764,0.0527,-0.0982
5014,-0.9797,-0.0264,0.2351,-0.1375,-0.0695,-0.1287
5024,-0.9817,-0.0227,0.2410,-0.0917,0.0374,-0.1134
5034,-0.9912,-0.0276,0.2417,0.0457,0.1595,-0.0066
5044,-0.9856,-0.0249,0.2366,-0.0153,0.0527,-0.0066
5054,-0.9731,-0.0244,0.2371,0.0457,-0.0847,0.0240
5064,-0.9797,-0.0215,0.2310,0.0610,-0.1305,0.0087
5074,-0.9824,-0.0247,0.2344,-0.0001,0.0069,0.0392
5084,-0.9858,-0.0273,0.2346,-0.0153,0.0832,0.0850
5094,-0.9802,-0.0254,0.2393,0.0610,0.0221,0.1308
5104,-0.9741,-0.0229,0.2307,0.0457,-0.2221,0.0087
5114,-0.9741,-0.0188,0.2302,0.0763,-0.4664,-0.0218
5124,-0.9819,-0.0232,0.2380,-0.0001,-0.4206,0.0392
5134,-0.9866,-0.0259,0.2397,-0.0001,-0.1458,0.0240
5144,-0.9802,-0.0234,0.2410,0.0610,0.0985,-0.0524
5154,-0.9788,-0.0210,0.2368,-0.0459,0.1290,-0.0371
5164,-0.9758,-0.0247,0.2312,0.0305,0.1137,-0.0676
5174,-0.9775,-0.0273,0.2329,0.0305,-0.0847,-0.0829
5184,-0.9839,-0.0247,0.2346,0.0152,-0.1458,-0.0218
5194,-0.9875,-0.0261,0.2371,0.0152,0.0374,-0.0982
5204,-0.9819,-0.0259,0.2368,-0.1222,0.0832,-0.0524
5214,-0.9790,-0.0249,0.2324,0.0152,-0.0084,-0.0218
5224,-0.9827,-0.0244,0.2375,-0.0001,0.1137,-0.0829
5234,-0.9836,-0.0261,0.2456,0.0152,0.1748,-0.0524
5244,-0.9739,-0.0259,0.2336,0.0152,0.0985,0.0698
5254,-0.9788,-0.0283,0.2422,0.0763,-0.0389,0.0392
5264,-0.9888,-0.0293,0.2349,0.0915,-0.1000,0.0545
5274,-0.9841,-0.0244,0.2432,0.1068,-0.0695,0.0545
5284,-0.9746,-0.0242,0.2351,0.0305,-0.0847,0.1766
5294,-0.9727,-0.0200,0.2271,0.0305,-0.2221,0.0698
5304,-0.9868,-0.0256,0.2439,0.0152,-0.3290,-0.0066
5314,-0.9963,-0.0295,0.2451,0.0305,-0.0847,0.0850
5324,-0.9761,-0.0273,0.2397,0.0915,0.0374,0.1308
5334,-0.9661,-0.0203,0.2356,0.0915,0.0832,-0.0066
5344,-0.9680,-0.0210,0.2319,0.0305,0.0221,-0.1134
5354,-0.9839,-0.0251,0.2400,0.0152,0.0069,-0.2508
5364,-0.9954,-0.0261,0.2388,0.0305,0.0221,-0.1134
5374,-0.9854,-0.0276,0.2380,0.1068,0.1290,-0.0066
5384,-0.9768,-0.0220,0.2395,0.0305,0.0985,0.0240
5394,-0.9724,-0.0205,0.2307,-0.0306,-0.0695,-0.0371
5404,-0.9805,-0.0254,0.2300,-0.0306,-0.1611,-0.0982
5414,-0.9927,-0.0300,0.2354,-0.0459,-0.1305,-0.0676
5424,-0.9915,-0.0278,0.2415,0.0457,-0.0237,0.0698
5434,-0.9836,-0.0256,0.2419,0.0305,-0.1458,0.0545
5444,-0.9702,-0.0261,0.2363,-0.0306,-0.1763,0.0087
5454,-0.9707,-0.0210,0.2327,-0.0153,-0.2069,-0.0676
5464,-0.9812,-0.0247,0.2344,-0.0306,-0.0542,-0.0829
5474,-0.9900,-0.0251,0.2407,-0.0611,0.0374,0.0240
5484,-0.9902,-0.0283,0.2361,0.0152,-0.0542,0.0240
5494,-0.9785,-0.0229,0.2380,0.1373,-0.1305,-0.0371
5504,-0.9724,-0.0205,0.2366,0.1373,-0.1458,-0.0066
5514,-0.9722,-0.0220,0.2378,0.1373,-0.0084,-0.0982
5524,-0.9792,-0.0227,0.2334,0.0305,0.1137,-0.1134
5534,-0.9844,-0.0261,0.2351,0.0152,0.0985,-0.1134
5544,-0.9934,-0.0266,0.2327,-0.1375,0.1290,0.0240
5554,-0.9910,-0.0278,0.2275,-0.0459,-0.0389,0.0545
5564,-0.9844,-0.0305,0.2395,0.0305,-0.2069,0.1461
5574,-0.9731,-0.0242,0.2317,-0.0153,-0.2374,0.2377
5584,-0.9766,-0.0210,0.2329,0.0763,-0.2985,0.0392
5594,-0.9790,-0.0215,0.2402,0.0457,-0.2527,-0.0218
5604,-0.9836,-0.0239,0.2400,-0.0153,0.0679,-0.0676
5614,-0.9856,-0.0215,0.2432,-0.0153,0.1901,0.0240
5624,-0.9805,-0.0183,0.2405,-0.0306,0.1443,0.0850
5634,-0.9690,-0.0210,0.2354,0.0305,0.0527,-0.0982
5644,-0.9766,-0.0256,0.2415,0.0305,0.0679,-0.1592
5654,-0.9814,-0.0227,0.2388,0.0610,0.1137,-0.0676
5664,-0.9834,-0.0229,0.2371,0.0610,0.2053,-0.0066
5674,-0.9856,-0.0232,0.2383,-0.0001,0.2359,0.0240
5684,-0.9812,-0.0317,0.2363,-0.0611,0.1748,-0.0218
5694,-0.9792,-0.0247,0.2256,-0.0459,0.1748,0.0240
5704,-0.9778,-0.0198,0.2371,-0.0917,-0.1000,-0.0829
5714,-0.9802,-0.0242,0.2358,-0.0153,-0.2374,-0.0829
5724,-0.9922,-0.0266,0.2375,-0.0764,-0.0847,-0.1287
5734,-0.9851,-0.0217,0.2383,-0.0917,0.0069,-0.0371
5744,-0.9771,-0.0227,0.2371,-0.0459,0.0374,0.0850
5754,-0.9788,-0.0222,0.2400,0.0152,-0.1305,0.0240
5764,-0.9758,-0.0249,0.2458,0.0457,-0.1763,-0.0066
5774,-0.9817,-0.0261,0.2393,0.0915,-0.1458,0.0698
5784,-0.9846,-0.0249,0.2375,0.0915,-0.0542,0.0545
5794,-0.9814,-0.0203,0.2368,0.1221,-0.0542,0.1308
5804,-0.9761,-0.0273,0.2351,0.1679,-0.1000,-0.0066
5814,-0.9773,-0.0249,0.2402,0.0152,-0.0847,-0.0066
5824,-0.9851,-0.0271,0.2388,-0.0764,0.1137,-0.0829
5834,-0.9849,-0.0247,0.2324,0.0457,0.1901,-0.0829
5844,-0.9792,-0.0237,0.2375,-0.0306,0.0527,0.0545
5854,-0.9744,-0.0208,0.2292,-0.0153,-0.0847,0.0392
5864,-0.9805,-0.0232,0.2388,-0.0153,-0.1916,-0.0218
5874,-0.9883,-0.0217,0.2385,-0.1069,-0.1153,-0.0524
5884,-0.9883,-0.0286,0.2366,-0.1222,0.0985,0.0545
5894,-0.9839,-0.0283,0.2361,-0.0459,0.0374,0.1461
5904,-0.9824,-0.0276,0.2405,0.0305,0.0221,0.0087
5914,-0.9734,-0.0256,0.2415,-0.0153,-0.1458,0.0698
5924,-0.9749,-0.0210,0.2356,0.0305,-0.1305,-0.0066
5934,-0.9824,-0.0234,0.2397,0.0457,0.0069,-0.0066
5944,-0.9878,-0.0251,0.2419,0.0152,-0.0084,-0.0982
5954,-0.9858,-0.0286,0.2405,0.0610,-0.0237,-0.0829
5964,-0.9805,-0.0229,0.2312,0.0152,-0.0847,-0.0066
5974,-0.9702,-0.0249,0.2305,-0.0001,-0.2221,-0.0218
5984,-0.9807,-0.0234,0.2378,0.0152,-0.2374,0.0698
5994,-0.9861,-0.0266,0.2371,0.0305,-0.1153,0.0698
6004,-0.9854,-0.0281,0.2424,-0.0459,0.0527,0.1919
6014,-0.9810,-0.0247,0.2349,0.0305,0.0985,0.0698
6024,-0.9785,-0.0210,0.2371,0.0152,0.0679,0.0545
6034,-0.9724,-0.0200,0.2314,0.0152,-0.1153,-0.0066
6044,-0.9802,-0.0215,0.2361,-0.0459,-0.1611,-0.0371
6054,-0.9878,-0.0256,0.2390,-0.1833,0.0832,-0.0982
6064,-0.9834,-0.0251,0.2400,-0.0917,0.0832,-0.0066
6074,-0.9788,-0.0239,0.2324,-0.0459,0.0221,0.0392
6084,-0.9741,-0.0259,0.2393,0.0152,-0.1000,0.1308
6094,-0.9800,-0.0249,0.2422,0.0152,-0.2374,0.1461
6104,-0.9885,-0.0295,0.2385,0.1373,-0.1000,0.0850
6114,-0.9854,-0.0256,0.2402,0.1068,0.0221,0.1308
6124,-0.9749,-0.0215,0.2317,0.0305,-0.0542,0.2530
6134,-0.9705,-0.0222,0.2327,0.0915,-0.2374,0.1156
6144,-0.9746,-0.0203,0.2424,0.1068,-0.4511,0.0545
6154,-0.9861,-0.0227,0.2361,0.0610,-0.2221,-0.0066
6164,-0.9827,-0.0229,0.2405,-0.0001,0.1443,-0.1287
6174,-0.9812,-0.0227,0.2349,-0.0153,0.3275,-0.0982
6184,-0.9731,-0.0208,0.2327,-0.0001,0.1748,-0.0218
6194,-0.9773,-0.0210,0.2339,0.0305,-0.0847,-0.0982
6204,-0.9861,-0.0264,0.2388,-0.0001,-0.1763,-0.1287
6214,-0.9768,-0.0293,0.2380,-0.0459,-0.0847,-0.0066
6224,-0.9832,-0.0273,0.2407,-0.0153,-0.0237,-0.0524
6234,-0.9795,-0.0305,0.2380,-0.0306,-0.0237,-0.0218
6244,-0.9780,-0.0256,0.2385,-0.0917,-0.0695,-0.0982
6254,-0.9800,-0.0298,0.2375,-0.0153,0.0679,-0.0524
6264,-0.9807,-0.0283,0.2439,-0.0764,0.1137,0.0087
6274,-0.9880,-0.0264,0.2363,-0.0001,0.1137,-0.0524
6284,-0.9814,-0.0273,0.2393,0.0305,-0.0237,-0.0218
6294,-0.9824,-0.0256,0.2395,0.0152,-0.1611,0.0392
6304,-0.9802,-0.0239,0.2380,0.0152,-0.1153,-0.0066
6314,-0.9822,-0.0247,0.2380,0.0152,0.1595,-0.0218
6324,-0.9824,-0.0254,0.2456,0.0915,0.2511,0.1156
6334,-0.9812,-0.0183,0.2344,-0.0001,0.0985,0.1003
6344,-0.9756,-0.0217,0.2380,0.0457,-0.2374,0.0392
6354,-0.9827,-0.0229,0.2412,0.0457,-0.1916,0.0240
6364,-0.9861,-0.0251,0.2412,-0.0611,0.1443,0.0545
6374,-0.9868,-0.0227,0.2358,-0.0153,0.2053,0.0087
6384,-0.9783,-0.0217,0.2261,-0.1222,0.0679,0.0087
6394,-0.9792,-0.0225,0.2305,-0.0611,-0.2374,-0.1134
6404,-0.9780,-0.0229,0.2358,-0.0459,-0.1458,-0.0982
6414,-0.9834,-0.0259,0.2395,-0.0001,0.0527,-0.1134
6424,-0.9836,-0.0251,0.2397,-0.0306,0.2206,-0.1898
6434,-0.9822,-0.0264,0.2422,-0.0153,0.0985,-0.0524
6444,-0.9753,-0.0205,0.2388,0.0152,-0.1458,-0.0676
6454,-0.9812,-0.0264,0.2412,0.0763,-0.1153,-0.0982
6464,-0.9836,-0.0256,0.2397,0.0305,0.0221,-0.0066
6474,-0.9839,-0.0229,0.2427,0.0763,0.0527,0.0240
6484,-0.9810,-0.0234,0.2380,0.1373,0.0374,-0.0218
6494,-0.9805,-0.0215,0.2317,0.0915,-0.0389,-0.0066
6504,-0.9844,-0.0229,0.2312,0.0763,-0.0847,-0.0829
6514,-0.9810,-0.0251,0.2361,0.0457,-0.0389,-0.0524
6524,-0.9858,-0.0266,0.2380,-0.0153,-0.0084,-0.0066
6534,-0.9844,-0.0276,0.2417,-0.0459,0.0679,-0.0218
6544,-0.9863,-0.0264,0.2378,-0.0001,0.0527,-0.0066
6554,-0.9739,-0.0239,0.2283,0.0305,-0.1458,-0.0066
6564,-0.9771,-0.0239,0.2366,-0.0306,-0.1763,-0.0066
6574,-0.9849,-0.0225,0.2363,-0.0764,0.0221,-0.0371
6584,-0.9910,-0.0259,0.2400,-0.1375,0.1901,-0.0371
6594,-0.9778,-0.0222,0.2329,-0.0459,-0.0389,-0.0218
6604,-0.9780,-0.0222,0.2378,-0.0459,-0.2221,-0.0218
6614,-0.9773,-0.0229,0.2488,0.0610,-0.2374,-0.0371
6624,-0.9844,-0.0232,0.2380,-0.1069,-0.0542,-0.0676
6634,-0.9858,-0.0242,0.2380,-0.0153,0.1137,-0.1134
6644,-0.9810,-0.0237,0.2378,0.0763,0.1290,-0.0829
6654,-0.9854,-0.0220,0.2324,0.0152,-0.0389,-0.0066
6664,-0.9844,-0.0244,0.2400,0.0763,-0.1305,-0.0066
6674,-0.9817,-0.0251,0.2312,0.0610,-0.0847,0.0545
6684,-0.9751,-0.0254,0.2361,-0.0459,-0.1153,0.0545
6694,-0.9785,-0.0247,0.2390,-0.0153,-0.0542,-0.0676
6704,-0.9880,-0.0254,0.2424,-0.0459,0.1443,-0.0371
6714,-0.9844,-0.0239,0.2378,0.0610,0.0985,-0.0066
6724,-0.9761,-0.0254,0.2358,0.0610,0.1137,0.0392
6734,-0.9712,-0.0222,0.2351,0.0457,-0.2221,-0.0218
6744,-0.9810,-0.0256,0.2429,0.0610,-0.1458,-0.0066
6754,-0.9924,-0.0293,0.2427,-0.0459,0.0374,-0.0218
6764,-0.9839,-0.0251,0.2371,0.0305,0.1137,0.0698
6774,-0.9736,-0.0237,0.2288,0.0763,0.0374,0.1156
6784,-0.9746,-0.0234,0.2419,-0.0001,-0.0084,0.0698
6794,-0.9883,-0.0242,0.2429,-0.0001,0.0832,0.0392
6804,-0.9863,-0.0242,0.2332,-0.0459,0.0069,-0.0371
6814,-0.9783,-0.0222,0.2354,0.0152,-0.0542,0.0545
6824,-0.9814,-0.0234,0.2341,0.0152,-0.1000,0.0392
6834,-0.9846,-0.0210,0.2419,-0.0459,-0.1000,0.0087
6844,-0.9939,-0.0264,0.2407,-0.0459,0.1137,-0.0218
6854,-0.9814,-0.0232,0.2310,-0.0459,0.1901,-0.0371
6864,-0.9722,-0.0232,0.2302,0.0763,0.0069,-0.0371
6874,-0.9761,-0.0237,0.2390,-0.0001,0.0221,0.0392
6884,-0.9871,-0.0229,0.2402,-0.0153,-0.0237,0.0240
6894,-0.9824,-0.0288,0.2429,0.0610,0.0679,-0.0676
6904,-0.9819,-0.0251,0.2397,0.0763,0.0679,0.0392
6914,-0.9758,-0.0210,0.2322,-0.0001,0.0527,0.0392
6924,-0.9751,-0.0198,0.2358,-0.0001,-0.1916,-0.0218
6934,-0.9858,-0.0205,0.2346,-0.0001,-0.2374,-0.0524
6944,-0.9907,-0.0291,0.2402,-0.1375,-0.0542,0.0698
6954,-0.9788,-0.0227,0.2427,-0.0764,0.1901,0.1156
6964,-0.9758,-0.0254,0.2332,-0.0153,0.1443,0.1003
6974,-0.9771,-0.0222,0.2407,-0.0153,-0.0695,-0.0371
6984,-0.9854,-0.0251,0.2402,0.0610,-0.1000,-0.1287
6994,-0.9829,-0.0291,0.2393,-0.0459,0.0679,-0.0676
7004,-0.9841,-0.0291,0.2388,0.0610,0.1901,-0.0371
7014,-0.9783,-0.0195,0.2378,-0.0153,0.1137,-0.0066
7024,-0.9724,-0.0178,0.2314,-0.0001,-0.1458,-0.0371
7034,-0.9849,-0.0208,0.2314,-0.0306,-0.1611,-0.0982
7044,-0.9937,-0.0266,0.2334,-0.1222,0.0527,-0.0218
7054,-0.9897,-0.0251,0.2407,-0.0459,0.1748,0.0087
7064,-0.9817,-0.0256,0.2329,-0.0764,0.0221,0.0392
7074,-0.9763,-0.0203,0.2266,0.0763,-0.2374,-0.0066
7084,-0.9822,-0.0264,0.2295,0.1526,-0.3443,-0.0218
7094,-0.9829,-0.0254,0.2339,0.0152,-0.2221,-0.0676
7104,-0.9814,-0.0239,0.2371,-0.0459,0.1290,-0.0371
7114,-0.9756,-0.0232,0.2305,-0.0001,0.1748,-0.0676
7124,-0.9819,-0.0269,0.2371,-0.1375,0.0832,-0.0218
7134,-0.9773,-0.0276,0.2454,-0.0917,-0.0237,-0.0218
7144,-0.9739,-0.0247,0.2429,-0.0764,-0.0695,-0.0524
7154,-0.9844,-0.0251,0.2415,-0.0611,0.1137,0.0087
7164,-0.9910,-0.0264,0.2395,0.0610,0.2206,0.0392
7174,-0.9836,-0.0254,0.2375,0.0305,0.2664,-0.0371
7184,-0.9768,-0.0210,0.2273,0.1221,-0.0695,-0.0066
7194,-0.9753,-0.0237,0.2266,-0.0001,-0.2985,0.0698
7204,-0.9836,-0.0247,0.2380,0.0152,-0.0847,0.0698
7214,-0.9878,-0.0273,0.2419,-0.0459,0.1595,0.0545
7224,-0.9861,-0.0193,0.2292,0.0915,0.0679,0.1614
7234,-0.9753,-0.0215,0.2424,0.0305,-0.0847,0.0240
7244,-0.9795,-0.0232,0.2356,-0.0153,-0.0389,0.0392
7254,-0.9841,-0.0229,0.2314,0.0610,0.1443,0.0392
7264,-0.9797,-0.0239,0.2349,0.0457,0.0985,0.1308
7274,-0.9775,-0.0212,0.2402,0.0152,-0.0389,0.1156
7284,-0.9822,-0.0269,0.2385,-0.0459,-0.0847,0.0392
7294,-0.9814,-0.0281,0.2339,0.0457,-0.0084,0.0240
7304,-0.9817,-0.0273,0.2344,0.0610,-0.0237,-0.0218
7314,-0.9780,-0.0220,0.2285,0.0152,-0.0695,-0.0676
7324,-0.9790,-0.0203,0.2358,-0.0153,-0.1305,-0.0829
7334,-0.9851,-0.0244,0.2407,-0.1069,-0.1000,-0.0982
7344,-0.9844,-0.0251,0.2339,-0.1680,0.0221,-0.0829
7354,-0.9758,-0.0278,0.2417,-0.0306,0.0832,0.0240
7364,-0.9736,-0.0247,0.2373,-0.0306,-0.0542,-0.0218
7374,-0.9802,-0.0283,0.2356,0.0915,-0.1763,-0.0982
7384,-0.9888,-0.0271,0.2378,0.1068,-0.0237,-0.1440
7394,-0.9856,-0.0232,0.2356,-0.0153,0.1137,-0.0524
7404,-0.9849,-0.0220,0.2292,0.0610,0.0374,0.0545
7414,-0.9736,-0.0271,0.2324,-0.0764,-0.0389,0.1003
7424,-0.9807,-0.0239,0.2341,-0.0153,-0.1458,0.1461
7434,-0.9856,-0.0288,0.2380,0.0305,-0.0237,0.0392
7444,-0.9792,-0.0278,0.2417,-0.0306,0.1137,0.0698
7454,-0.9751,-0.0237,0.2437,0.0610,-0.1000,0.1003
7464,-0.9785,-0.0249,0.2429,0.0457,-0.1305,0.0545
7474,-0.9817,-0.0232,0.2415,0.1679,0.0221,0.0087
7484,-0.9841,-0.0220,0.2341,0.0457,0.1290,-0.0218
7494,-0.9780,-0.0242,0.2368,-0.0001,0.0679,0.0545
7504,-0.9785,-0.0220,0.2349,-0.0001,-0.1153,-0.0218
7514,-0.9834,-0.0239,0.2368,0.0305,-0.1153,-0.0829
7524,-0.9873,-0.0295,0.2427,0.0457,0.0069,0.0087
7534,-0.9800,-0.0256,0.2393,-0.0306,0.2206,0.0392
7544,-0.9761,-0.0237,0.2349,0.0610,0.1748,0.0698
7554,-0.9778,-0.0220,0.2349,0.0305,-0.0084,-0.0371
7564,-0.9893,-0.0242,0.2346,0.0152,-0.0695,0.0240
7574,-0.9858,-0.0278,0.2354,-0.0306,-0.0389,0.0087
7584,-0.9805,-0.0242,0.2368,-0.0764,0.0069,0.1003
7594,-0.9778,-0.0203,0.2368,-0.0306,-0.0695,0.0545
7604,-0.9753,-0.0234,0.2383,-0.0611,-0.1305,0.0087
7614,-0.9807,-0.0256,0.2439,-0.0459,-0.1305,0.0392
7624,-0.9832,-0.0259,0.2451,-0.0611,0.0374,0.0392
7634,-0.9849,-0.0251,0.2346,-0.0306,0.2053,-0.0371
7644,-0.9751,-0.0239,0.2395,0.0152,0.1443,-0.0218
7654,-0.9780,-0.0200,0.2349,0.0305,-0.0542,-0.0371
7664,-0.9841,-0.0300,0.2375,-0.0001,-0.0542,-0.0676
7674,-0.9832,-0.0286,0.2317,-0.0917,0.1290,0.0240
7684,-0.9749,-0.0203,0.2339,-0.0001,-0.0237,0.0240
7694,-0.9851,-0.0203,0.2395,0.0152,-0.1000,-0.1134
7704,-0.9827,-0.0234,0.2407,-0.0153,-0.1916,-0.0982
7714,-0.9807,-0.0234,0.2437,-0.0001,-0.1153,-0.0676
7724,-0.9792,-0.0251,0.2373,0.0915,0.0985,0.0698
7734,-0.9827,-0.0229,0.2302,0.0305,0.1595,0.1003
7744,-0.9731,-0.0229,0.2300,0.0305,-0.0695,0.0392
7754,-0.9817,-0.0234,0.2363,-0.0001,-0.2985,-0.0218
7764,-0.9858,-0.0264,0.2344,-0.0153,-0.0847,-0.0066
7774,-0.9880,-0.0232,0.2332,-0.0306,0.0679,0.0392
7784,-0.9814,-0.0266,0.2290,-0.0153,0.0374,-0.0066
7794,-0.9768,-0.0247,0.2324,-0.0917,0.0069,-0.0524
7804,-0.9768,-0.0222,0.2405,0.0457,0.0221,-0.0982
7814,-0.9807,-0.0259,0.2332,0.1221,-0.1916,-0.0524
7824,-0.9929,-0.0256,0.2415,0.0152,-0.0542,-0.0829
7834,-0.9844,-0.0229,0.2322,-0.0153,0.0679,-0.0218
7844,-0.9785,-0.0212,0.2317,-0.0001,0.0679,0.0087
7854,-0.9802,-0.0227,0.2356,0.0610,-0.0084,0.0698
7864,-0.9800,-0.0247,0.2356,0.0305,0.0374,0.0545
7874,-0.9814,-0.0264,0.2363,0.0457,0.0527,0.1003
7884,-0.9812,-0.0249,0.2344,-0.0001,0.0527,0.1308
7894,-0.9827,-0.0259,0.2383,0.0305,-0.1000,0.0545
7904,-0.9805,-0.0212,0.2351,-0.0306,-0.2679,0.0087
7914,-0.9792,-0.0220,0.2395,-0.0153,-0.2069,-0.0982
7924,-0.9795,-0.0271,0.2356,-0.0764,-0.0084,-0.0218
7934,-0.9788,-0.0208,0.2358,0.0152,0.1595,-0.0371
7944,-0.9768,-0.0247,0.2341,-0.0764,-0.0084,-0.0371
7954,-0.9817,-0.0273,0.2417,-0.0306,-0.0389,-0.0371
7964,-0.9819,-0.0261,0.2385,-0.0611,0.0832,-0.1287
7974,-0.9797,-0.0244,0.2356,-0.0459,0.1290,-0.0371
7984,-0.9810,-0.0273,0.2380,-0.0611,0.0527,-0.0829
7994,-0.9846,-0.0308,0.2341,0.0763,-0.0542,-0.0371
8004,-0.9849,-0.0295,0.2385,0.0457,-0.0237,0.0392
8014,-0.9829,-0.0298,0.2415,0.0152,0.0221,0.1614
8024,-0.9788,-0.0291,0.2373,0.0763,0.0221,0.1003
8034,-0.9778,-0.0261,0.2300,0.0457,-0.0847,0.1156
8044,-0.9756,-0.0239,0.2390,0.0610,-0.1458,0.0698
8054,-0.9783,-0.0261,0.2427,-0.0001,-0.0389,-0.0218
8064,-0.9910,-0.0247,0.2358,-0.1069,0.1443,-0.0524
8074,-0.9785,-0.0249,0.2361,-0.0459,0.2053,0.0545
8084,-0.9797,-0.0242,0.2378,0.0457,0.1137,0.0392
8094,-0.9775,-0.0249,0.2356,-0.0306,0.0374,0.0545
8104,-0.9851,-0.0244,0.2332,0.0763,-0.0237,-0.0066
8114,-0.9846,-0.0264,0.2363,0.0610,-0.0389,-0.0066
8124,-0.9800,-0.0273,0.2346,-0.0611,-0.0084,0.0698
8134,-0.9805,-0.0259,0.2302,-0.0001,0.0374,0.0240
8144,-0.9790,-0.0273,0.2354,-0.0306,-0.0542,0.0392
8154,-0.9810,-0.0254,0.2275,-0.0306,-0.0847,-0.0829
8164,-0.9814,-0.0278,0.2415,-0.0153,0.0069,-0.1440
8174,-0.9873,-0.0271,0.2432,-0.0459,0.0985,-0.0829
8184,-0.9861,-0.0239,0.2427,-0.0306,0.1748,-0.0829
8194,-0.9780,-0.0234,0.2346,0.0610,0.0679,-0.1134
8204,-0.9753,-0.0200,0.2354,0.1068,-0.1458,-0.0676
8214,-0.9854,-0.0244,0.2454,0.0610,-0.1305,-0.0371
8224,-0.9902,-0.0298,0.2407,-0.0306,0.0832,0.0087
8234,-0.9817,-0.0293,0.2363,0.0457,0.1137,0.0545
8244,-0.9790,-0.0271,0.2351,0.0610,0.0221,0.0392
8254,-0.9778,-0.0254,0.2322,0.0915,-0.0084,0.0698
8264,-0.9814,-0.0232,0.2412,0.0763,-0.1000,-0.0066
8274,-0.9822,-0.0244,0.2405,0.0457,0.0221,0.0087
8284,-0.9851,-0.0234,0.2351,0.0457,0.0679,0.0850
8294,-0.9832,-0.0264,0.2400,-0.0611,0.0374,0.0545
8304,-0.9797,-0.0208,0.2314,-0.0459,-0.0389,0.0545
8314,-0.9680,-0.0242,0.2307,0.0152,-0.2374,-0.0982
8324,-0.9771,-0.0239,0.2480,-0.0306,-0.1611,-0.0829
8334,-0.9895,-0.0247,0.2422,-0.0764,0.1595,-0.0829
8344,-0.9841,-0.0222,0.2419,-0.0611,0.2969,0.0087
8354,-0.9802,-0.0269,0.2380,0.0152,0.0832,-0.0829
8364,-0.9773,-0.0193,0.2312,0.0457,-0.1763,-0.1134
8374,-0.9766,-0.0220,0.2346,0.0305,-0.2832,-0.1134
8384,-0.9919,-0.0264,0.2341,0.0763,-0.0847,-0.1440
8394,-0.9866,-0.0278,0.2373,-0.0153,0.0985,-0.0371
8404,-0.9771,-0.0254,0.2378,0.0763,0.1443,0.0850
8414,-0.9768,-0.0242,0.2334,0.0610,-0.0847,-0.0371
8424,-0.9758,-0.0261,0.2307,-0.0153,-0.1763,-0.0524
8434,-0.9778,-0.0239,0.2339,-0.0917,-0.2527,-0.0218
8444,-0.9856,-0.0259,0.2388,0.0457,-0.0695,-0.0982
8454,-0.9854,-0.0249,0.2419,-0.0001,0.0374,0.0087
8464,-0.9810,-0.0281,0.2400,0.0305,0.0527,0.0850
8474,-0.9739,-0.0264,0.2388,0.0152,0.0374,-0.0066
8484,-0.9722,-0.0244,0.2388,0.0152,-0.0542,0.0087
8494,-0.9812,-0.0217,0.2419,-0.0611,0.0221,0.0240
8504,-0.9875,-0.0229,0.2378,0.0152,0.2053,0.0240
8514,-0.9849,-0.0229,0.2407,0.0305,0.2969,-0.0066
8524,-0.9753,-0.0205,0.2380,0.0610,0.1901,0.0087
8534,-0.9749,-0.0237,0.2263,0.0763,0.1595,-0.0218
8544,-0.9797,-0.0242,0.2334,0.0152,-0.0389,-0.0371
8554,-0.9810,-0.0259,0.2397,0.0305,-0.1763,-0.0218
8564,-0.9814,-0.0244,0.2388,0.0457,-0.1305,0.0087
8574,-0.9805,-0.0186,0.2302,0.1068,-0.0695,-0.0676
8584,-0.9761,-0.0251,0.2341,-0.0153,-0.0847,-0.0218
8594,-0.9827,-0.0225,0.2351,0.0610,-0.0695,-0.0371
8604,-0.9822,-0.0244,0.2349,-0.0153,-0.1000,-0.0218
8614,-0.9819,-0.0247,0.2361,-0.0153,-0.1000,-0.0982
8624,-0.9846,-0.0242,0.2354,-0.0764,0.0527,-0.1287
8634,-0.9824,-0.0234,0.2395,-0.0917,0.0527,-0.0676
8644,-0.9771,-0.0247,0.2358,-0.0917,-0.1153,0.0545
8654,-0.9810,-0.0259,0.2363,0.0610,-0.2679,-0.0066
8664,-0.9846,-0.0239,0.2356,0.0152,-0.0847,0.0850
8674,-0.9846,-0.0295,0.2383,0.0763,0.0374,0.0545
8684,-0.9802,-0.0281,0.2366,-0.0611,0.0527,0.0698
8694,-0.9780,-0.0217,0.2412,0.0305,-0.0695,0.0545
8704,-0.9778,-0.0215,0.2349,-0.0306,-0.2679,-0.0218
8714,-0.9827,-0.0232,0.2332,0.0915,-0.2069,-0.0524
8724,-0.9919,-0.0234,0.2368,0.0152,-0.0847,-0.0676
8734,-0.9856,-0.0203,0.2441,0.0457,0.0527,-0.0524
8744,-0.9792,-0.0205,0.2361,0.0152,0.0832,-0.0218
8754,-0.9783,-0.0222,0.2319,0.0457,0.0221,-0.0371
8764,-0.9785,-0.0198,0.2390,0.0305,-0.1305,-0.0218
8774,-0.9841,-0.0220,0.2400,-0.0306,-0.0695,0.0392
8784,-0.9834,-0.0249,0.2451,-0.0459,-0.0084,0.1003
8794,-0.9790,-0.0266,0.2361,0.0457,0.0221,-0.0066
8804,-0.9763,-0.0281,0.2407,0.0763,-0.0237,-0.0218
8814,-0.9780,-0.0303,0.2354,0.0763,-0.0542,-0.0676
8824,-0.9829,-0.0300,0.2295,0.0610,-0.0542,-0.0371
8834,-0.9866,-0.0281,0.2412,0.0763,0.0832,-0.0371
8844,-0.9832,-0.0269,0.2412,0.0152,0.1595,-0.0066
8854,-0.9817,-0.0251,0.2366,0.0152,0.0221,0.0545
8864,-0.9705,-0.0215,0.2358,0.0305,-0.0542,0.0545
8874,-0.9795,-0.0208,0.2368,-0.0764,-0.1458,0.0087
8884,-0.9885,-0.0254,0.2400,0.0610,0.0527,0.0698
8894,-0.9924,-0.0286,0.2390,0.0457,0.2359,0.0240
8904,-0.9817,-0.0247,0.2354,0.1526,0.1290,0.1461
8914,-0.9734,-0.0208,0.2327,0.0763,-0.1000,0.0850
8924,-0.9771,-0.0266,0.2358,0.0610,-0.1763,0.0698
8934,-0.9810,-0.0232,0.2388,0.1068,-0.2069,-0.0066
8944,-0.9873,-0.0217,0.2349,-0.0153,0.0374,0.0698
8954,-0.9839,-0.0295,0.2334,-0.0001,0.2206,0.1003
8964,-0.9802,-0.0212,0.2451,0.0763,0.1443,0.0392
8974,-0.9771,-0.0203,0.2368,0.0305,-0.0542,-0.0371
8984,-0.9773,-0.0200,0.2415,-0.0611,-0.1000,-0.0829
8994,-0.9851,-0.0259,0.2405,-0.0306,0.0069,-0.0524
9004,-0.9895,-0.0232,0.2368,-0.0001,0.1901,-0.0371
9014,-0.9802,-0.0242,0.2407,0.0610,0.1595,0.0240
9024,-0.9771,-0.0229,0.2344,-0.0153,-0.0847,0.0240
9034,-0.9807,-0.0217,0.2371,-0.0001,-0.2069,0.0240
9044,-0.9812,-0.0256,0.2383,-0.0306,-0.1458,0.0240
9054,-0.9858,-0.0286,0.2368,-0.0764,0.0374,0.0240
9064,-0.9863,-0.0244,0.2356,-0.0611,0.1443,0.0698
9074,-0.9783,-0.0220,0.2297,0.0152,-0.0084,-0.0524
9084,-0.9775,-0.0203,0.2363,-0.0153,-0.1611,0.0240
9094,-0.9805,-0.0186,0.2319,-0.0001,-0.1305,-0.0829
9104,-0.9844,-0.0225,0.2375,-0.0001,0.0069,-0.0982
9114,-0.9827,-0.0232,0.2354,-0.1527,0.1137,-0.0524
9124,-0.9785,-0.0249,0.2407,-0.0611,0.0069,-0.0676
9134,-0.9780,-0.0249,0.2339,-0.0001,-0.0237,-0.1440
9144,-0.9800,-0.0244,0.2385,0.0457,-0.1000,-0.0829
9154,-0.9797,-0.0237,0.2434,0.0457,0.0374,-0.0218
9164,-0.9841,-0.0259,0.2393,0.0152,0.1748,-0.0066
9174,-0.9841,-0.0273,0.2451,0.0610,0.1443,-0.1134
9184,-0.9819,-0.0237,0.2339,-0.0001,0.0221,-0.0676
9194,-0.9805,-0.0227,0.2317,0.0152,-0.1153,0.0698
9204,-0.9810,-0.0259,0.2319,-0.0459,-0.0542,0.0392
9214,-0.9812,-0.0220,0.2366,-0.0306,0.0069,-0.0218
9224,-0.9817,-0.0283,0.2332,-0.0001,0.0069,-0.0218
9234,-0.9819,-0.0242,0.2390,-0.0153,-0.0389,-0.0829
9244,-0.9797,-0.0256,0.2332,-0.0306,-0.0542,-0.0218
9254,-0.9773,-0.0217,0.2390,-0.0306,0.0832,0.0087
9264,-0.9812,-0.0220,0.2388,-0.0459,0.0069,-0.0066
9274,-0.9834,-0.0237,0.2371,-0.0459,-0.0695,-0.0066
9284,-0.9885,-0.0254,0.2417,-0.0153,-0.1000,0.0850
9294,-0.9800,-0.0271,0.2412,0.0152,-0.0389,0.1156
9304,-0.9797,-0.0269,0.2373,0.0305,-0.2069,-0.0066
9314,-0.9788,-0.0298,0.2368,0.0152,-0.1305,0.0087
9324,-0.9849,-0.0254,0.2344,-0.0153,0.1137,0.0087
9334,-0.9822,-0.0232,0.2346,0.0305,0.2206,0.0392
9344,-0.9775,-0.0254,0.2341,0.0610,0.0069,0.0087
9354,-0.9780,-0.0234,0.2405,-0.0001,-0.2527,-0.0982
9364,-0.9854,-0.0237,0.2400,-0.0917,-0.0237,-0.0066
9374,-0.9856,-0.0247,0.2346,-0.0764,0.1901,-0.0066
9384,-0.9768,-0.0242,0.2249,-0.0764,0.3275,0.0392
9394,-0.9734,-0.0225,0.2344,-0.0611,-0.0389,0.0392
9404,-0.9800,-0.0266,0.2300,0.0305,-0.2985,-0.0066
9414,-0.9854,-0.0234,0.2363,0.0763,-0.3595,-0.0524
9424,-0.9771,-0.0195,0.2383,0.1068,-0.0847,-0.0524
9434,-0.9773,-0.0244,0.2329,-0.0001,0.1137,-0.0982
9444,-0.9785,-0.0239,0.2292,-0.0764,0.1290,-0.0829
9454,-0.9717,-0.0220,0.2383,-0.0001,-0.2679,0.0240
9464,-0.9819,-0.0247,0.2390,0.0457,-0.3595,0.0240
9474,-0.9856,-0.0264,0.2432,-0.0917,-0.2221,-0.0676
9484,-0.9829,-0.0242,0.2422,-0.0611,0.1137,-0.0829
9494,-0.9766,-0.0222,0.2429,-0.0306,0.2511,-0.0982
9504,-0.9771,-0.0229,0.2332,-0.0001,0.0832,-0.1134
9514,-0.9824,-0.0232,0.2405,-0.0153,-0.1763,-0.1134
9524,-0.9846,-0.0227,0.2324,-0.0764,-0.1153,0.0240
9534,-0.9871,-0.0310,0.2327,-0.0764,-0.0084,0.0698
9544,-0.9819,-0.0247,0.2339,-0.0001,0.0527,0.0698
9554,-0.9771,-0.0259,0.2356,0.0457,-0.0389,0.0545
9564,-0.9780,-0.0217,0.2380,-0.0306,-0.3137,0.0850
9574,-0.9810,-0.0242,0.2358,0.0152,-0.3137,0.1156
9584,-0.9858,-0.0227,0.2383,0.0305,-0.0695,0.0545
9594,-0.9805,-0.0266,0.2390,-0.0153,0.0069,0.0545
9604,-0.9963,-0.0269,0.2192,-0.0153,0.0985,-0.0371
9614,-0.9724,-0.0188,0.2388,0.0152,-0.0847,-0.0524
9624,-0.9697,-0.0210,0.2339,-0.0001,-0.1916,-0.0982
9634,-0.9849,-0.0261,0.2439,-0.0306,-0.0695,-0.1898
9644,-0.9905,-0.0269,0.2444,-0.0306,0.0527,-0.0066
9654,-0.9790,-0.0249,0.2441,0.1068,-0.0237,-0.0371
9664,-0.9707,-0.0266,0.2300,0.0305,-0.1305,-0.0066
9674,-0.9788,-0.0195,0.2344,-0.0001,-0.1458,-0.0066
9684,-0.9863,-0.0286,0.2361,-0.0001,-0.0542,-0.0371
9694,-0.9924,-0.0305,0.2397,0.1068,0.0069,0.0087
9704,-0.9905,-0.0254,0.2319,0.0915,0.0527,0.0087
9714,-0.9822,-0.0295,0.2349,0.1068,-0.0695,-0.0218
9724,-0.9739,-0.0244,0.2302,0.0763,-0.2221,0.0850
9734,-0.9797,-0.0232,0.2358,0.0305,-0.2069,0.0698
9744,-0.9839,-0.0271,0.2368,-0.0459,0.0069,-0.0218
9754,-0.9807,-0.0247,0.2397,-0.0459,0.1748,0.0392
9764,-0.9797,-0.0237,0.2410,-0.0153,0.0832,-0.0066
9774,-0.9761,-0.0210,0.2422,0.0305,-0.1305,0.0240
9784,-0.9724,-0.0212,0.2297,0.0305,-0.2069,-0.0218
9794,-0.9856,-0.0203,0.2383,-0.0917,-0.0542,-0.0218
9804,-0.9907,-0.0273,0.2375,-0.0153,0.0985,-0.0676
9814,-0.9851,-0.0234,0.2349,0.0610,0.1901,0.0850
9824,-0.9783,-0.0239,0.2363,-0.0001,-0.0695,0.1003
9834,-0.9785,-0.0220,0.2346,-0.0153,-0.1458,-0.0218
9844,-0.9829,-0.0298,0.2332,-0.0153,-0.0542,-0.0218
9854,-0.9905,-0.0256,0.2417,-0.0611,0.1443,0.0087
9864,-0.9878,-0.0256,0.2380,-0.0459,0.1901,-0.0371
9874,-0.9827,-0.0239,0.2378,-0.0306,0.0832,-0.0066
9884,-0.9814,-0.0259,0.2295,-0.0001,0.0374,0.1003
9894,-0.9749,-0.0247,0.2371,-0.0611,-0.0542,0.0392
9904,-0.9790,-0.0225,0.2395,-0.0764,0.0069,0.1003
9914,-0.9861,-0.0232,0.2454,-0.0611,0.1901,0.0240
9924,-0.9888,-0.0242,0.2395,0.0763,0.2664,0.0698
9934,-0.9756,-0.0239,0.2363,0.1679,0.0221,0.1461
9944,-0.9734,-0.0178,0.2302,0.0915,-0.2069,0.1461
9954,-0.9744,-0.0195,0.2346,0.0763,-0.1916,0.0545
9964,-0.9856,-0.0234,0.2354,0.0152,-0.0542,0.0087
9974,-0.9802,-0.0249,0.2349,-0.0001,0.0527,-0.0218
9984,-0.9766,-0.0195,0.2388,0.0152,-0.0237,-0.0676
9994,-0.9739,-0.0210,0.2295,-0.0611,-0.0847,-0.0524
10004,-0.9822,-0.0227,0.2410,0.0152,-0.0847,-0.1592
10014,-0.9805,-0.0254,0.2378,0.0305,-0.0389,-0.0676
10024,-0.9827,-0.0217,0.2412,0.0610,-0.0389,-0.0218
10034,-0.9822,-0.0281,0.2410,0.0152,0.0221,-0.0524
10044,-0.9832,-0.0261,0.2378,-0.0153,0.0527,-0.0524
10054,-0.9812,-0.0264,0.2397,-0.0459,-0.0237,-0.0676
10064,-0.9717,-0.0234,0.2388,-0.0153,0.0069,-0.0371
10074,-0.9849,-0.0288,0.2410,-0.0459,0.1595,0.0087
10084,-0.9834,-0.0278,0.2310,-0.0306,0.1595,-0.0066
10094,-0.9822,-0.0220,0.2327,-0.0153,-0.2069,0.0240
10104,-0.9817,-0.0264,0.2393,-0.0153,-0.1916,-0.0066
10114,-0.9812,-0.0249,0.2354,-0.0153,-0.0084,-0.0371
10124,-0.9812,-0.0247,0.2368,0.1221,0.1290,-0.0829
10134,-0.9802,-0.0181,0.2339,0.0763,-0.0542,0.0087
10144,-0.9814,-0.0190,0.2349,0.0763,-0.2069,0.0698
10154,-0.9795,-0.0188,0.2327,-0.0001,-0.1305,0.0240
10164,-0.9768,-0.0232,0.2422,0.0610,-0.2221,0.0545
10174,-0.9851,-0.0244,0.2427,-0.0611,-0.1611,-0.0066
10184,-0.9819,-0.0293,0.2427,0.0763,0.0221,0.0698
10194,-0.9836,-0.0254,0.2375,0.0305,0.1443,0.0545
10204,-0.9775,-0.0256,0.2368,0.0457,0.0374,0.0240
10214,-0.9756,-0.0234,0.2356,-0.0001,-0.1611,0.0087
10224,-0.9871,-0.0249,0.2417,-0.0306,-0.0237,-0.0676
10234,-0.9905,-0.0283,0.2412,-0.0306,0.1595,-0.0676
10244,-0.9839,-0.0276,0.2366,0.0457,0.1443,0.0392
10254,-0.9727,-0.0261,0.2439,-0.0001,-0.0389,0.1156
10264,-0.9758,-0.0212,0.2400,0.0305,-0.0695,-0.0524
10274,-0.9858,-0.0239,0.2410,-0.0001,-0.0084,-0.0371
10284,-0.9824,-0.0286,0.2422,-0.0459,0.2206,0.0087
10294,-0.9836,-0.0227,0.2354,-0.0459,0.1595,0.0545
10304,-0.9792,-0.0217,0.2358,0.0610,0.0221,0.1461
10314,-0.9780,-0.0186,0.2310,0.0305,-0.2527,0.1614
10324,-0.9807,-0.0203,0.2366,-0.0459,-0.2374,0.0392
10334,-0.9827,-0.0244,0.2415,-0.0153,0.0679,0.1156
10344,-0.9817,-0.0271,0.2344,-0.0459,0.1901,0.0240
10354,-0.9829,-0.0220,0.2329,0.0610,0.0527,0.0240
10364,-0.9788,-0.0229,0.2473,-0.0001,-0.1611,-0.0524
10374,-0.9822,-0.0229,0.2397,0.0457,-0.1153,-0.0218
10384,-0.9873,-0.0273,0.2432,0.0152,0.0069,0.0392
10394,-0.9868,-0.0227,0.2332,-0.0459,0.1901,0.0545
10404,-0.9797,-0.0278,0.2312,0.0152,0.1443,0.0392
10414,-0.9790,-0.0256,0.2388,-0.0306,-0.0237,-0.0066
10424,-0.9822,-0.0286,0.2361,0.0305,-0.1153,-0.0371
10434,-0.9844,-0.0291,0.2349,0.0915,0.0832,0.0240
10444,-0.9861,-0.0237,0.2336,0.1526,0.0985,0.0850
10454,-0.9819,-0.0215,0.2336,0.0610,0.0374,0.0545
10464,-0.9751,-0.0168,0.2432,0.1068,-0.1153,0.1003
10474,-0.9827,-0.0215,0.2424,0.0763,-0.2374,0.0392
10484,-0.9824,-0.0244,0.2339,-0.0306,-0.0847,0.0087
10494,-0.9829,-0.0210,0.2410,-0.0459,0.0374,0.0240
10504,-0.9785,-0.0229,0.2363,-0.0459,0.0069,0.0698
10514,-0.9741,-0.0234,0.2378,-0.0611,-0.1000,-0.0371
10524,-0.9800,-0.0244,0.2407,-0.0153,-0.0847,-0.0524
10534,-0.9829,-0.0256,0.2417,-0.0306,-0.0237,-0.0524
10544,-0.9929,-0.0325,0.2390,-0.0153,0.1748,0.0392
10554,-0.9797,-0.0278,0.2375,0.0457,0.1137,-0.0218
10564,-0.9766,-0.0242,0.2393,0.0457,0.0679,0.0698
10574,-0.9756,-0.0293,0.2290,-0.0153,0.0069,-0.0829
10584,-0.9780,-0.0271,0.2310,0.0610,-0.0389,-0.0371
10594,-0.9866,-0.0291,0.2346,0.0305,0.0374,0.0087
10604,-0.9902,-0.0225,0.2390,0.0305,0.1290,-0.0524
10614,-0.9822,-0.0266,0.2412,-0.0001,0.0679,0.0392
10624,-0.9768,-0.0237,0.2334,0.1068,-0.0389,0.0850
10634,-0.9729,-0.0222,0.2361,0.0610,-0.2069,0.0087
10644,-0.9851,-0.0200,0.2371,-0.0001,-0.0695,0.0087
10654,-0.9875,-0.0247,0.2346,-0.0153,0.1595,-0.0371
10664,-0.9761,-0.0195,0.2349,0.0763,0.0221,0.0240
10674,-0.9795,-0.0212,0.2419,0.0915,-0.0237,0.0087
10684,-0.9792,-0.0225,0.2373,0.0152,-0.0695,-0.0066
10694,-0.9805,-0.0222,0.2397,0.0763,-0.0695,-0.0066
10704,-0.9785,-0.0251,0.2339,0.0305,0.0527,0.0392
10714,-0.9807,-0.0249,0.2476,-0.0306,0.1137,0.0240
10724,-0.9785,-0.0247,0.2354,-0.0306,0.0527,-0.0218
10734,-0.9790,-0.0249,0.2366,0.0763,-0.0084,-0.0676
10744,-0.9863,-0.0247,0.2378,-0.0153,0.0527,-0.0524
10754,-0.9836,-0.0222,0.2354,-0.0001,0.0985,-0.0218
10764,-0.9888,-0.0232,0.2300,-0.0611,0.0527,-0.0066
10774,-0.9773,-0.0239,0.2400,-0.0153,-0.0389,0.0240
10784,-0.9778,-0.0237,0.2378,-0.0306,-0.1458,0.0087
10794,-0.9734,-0.0198,0.2388,-0.0611,-0.0237,-0.0066
10804,-0.9851,-0.0261,0.2410,-0.0153,0.0527,-0.0371
10814,-0.9841,-0.0222,0.2373,-0.0306,0.1748,-0.0218
10824,-0.9751,-0.0225,0.2322,-0.0153,0.0069,0.0087
10834,-0.9768,-0.0222,0.2354,0.0305,-0.1763,-0.0829
10844,-0.9832,-0.0261,0.2402,-0.0001,-0.1611,-0.0066
10854,-0.9858,-0.0288,0.2361,-0.0153,-0.0542,0.0545
10864,-0.9805,-0.0259,0.2424,-0.0764,-0.0237,0.0087
10874,-0.9753,-0.0225,0.2278,0.0610,-0.0695,0.0240
10884,-0.9739,-0.0234,0.2334,-0.0153,-0.1763,-0.0676
10894,-0.9905,-0.0293,0.2373,0.0152,-0.0695,-0.0371
10904,-0.9907,-0.0237,0.2422,-0.0459,0.0221,-0.0066
10914,-0.9810,-0.0273,0.2407,-0.0153,0.0527,0.0392
10924,-0.9761,-0.0188,0.2407,0.0305,-0.0389,0.0240
10934,-0.9814,-0.0208,0.2351,0.0152,-0.0695,-0.0524
10944,-0.9819,-0.0281,0.2366,-0.0459,0.0679,-0.0371
10954,-0.9844,-0.0205,0.2346,0.0610,0.0374,0.1308
10964,-0.9771,-0.0215,0.2375,0.0763,0.0069,0.0698
10974,-0.9800,-0.0198,0.2329,0.0152,-0.1763,0.0240
10984,-0.9802,-0.0215,0.2361,-0.0306,-0.1305,-0.0066
10994,-0.9829,-0.0220,0.2415,-0.1069,0.0527,-0.0218
11004,-0.9836,-0.0232,0.2310,-0.0306,0.1137,0.0392
11014,-0.9805,-0.0220,0.2410,-0.0001,0.0069,0.0240
11024,-0.9763,-0.0244,0.2397,-0.0153,-0.0847,-0.0371
11034,-0.9814,-0.0266,0.2437,0.0457,-0.0695,-0.0982
11044,-0.9797,-0.0249,0.2424,-0.0153,-0.0389,-0.0676
11054,-0.9773,-0.0220,0.2400,-0.0459,0.0527,-0.1134
11064,-0.9780,-0.0193,0.2349,0.0305,0.0985,-0.0829
11074,-0.9824,-0.0234,0.2371,-0.0459,0.0069,-0.1745
11084,-0.9871,-0.0242,0.2424,-0.0459,-0.0695,-0.0218
11094,-0.9812,-0.0222,0.2368,-0.0611,-0.1305,-0.0524
11104,-0.9749,-0.0217,0.2422,0.0610,-0.1153,0.0087
11114,-0.9800,-0.0227,0.2366,0.1068,0.0069,-0.0676
11124,-0.9868,-0.0220,0.2351,0.0305,-0.0389,-0.1287
11134,-0.9841,-0.0251,0.2385,-0.0306,-0.0389,-0.0676
11144,-0.9797,-0.0205,0.2317,0.0152,0.0069,-0.0524
11154,-0.9832,-0.0251,0.2322,-0.0917,0.0679,-0.0371
11164,-0.9827,-0.0247,0.2361,-0.1069,-0.0695,0.0392
11174,-0.9814,-0.0242,0.2366,-0.0153,-0.1916,0.0392
11184,-0.9814,-0.0247,0.2456,-0.0917,-0.1763,0.0392
11194,-0.9829,-0.0271,0.2373,-0.0001,0.0069,0.0698
11204,-0.9836,-0.0227,0.2380,0.0152,0.0832,0.0240
11214,-0.9785,-0.0232,0.2358,-0.0001,0.0832,-0.0066
11224,-0.9790,-0.0249,0.2358,-0.0001,0.0069,-0.1134
11234,-0.9854,-0.0300,0.2439,-0.0611,0.0069,-0.0829
11244,-0.9932,-0.0271,0.2322,-0.0459,0.1137,-0.1287
11254,-0.9890,-0.0259,0.2402,-0.0001,-0.0084,0.0392
11264,-0.9768,-0.0215,0.2349,0.0610,-0.2069,0.1308
11274,-0.9727,-0.0217,0.2346,0.0763,-0.3901,0.0698
11284,-0.9810,-0.0239,0.2346,0.0152,-0.2374,0.0545
11294,-0.9861,-0.0286,0.2351,0.0305,0.0832,-0.0066
11304,-0.9792,-0.0259,0.2341,0.0305,0.2511,-0.0218
11314,-0.9727,-0.0203,0.2354,-0.0459,0.1137,0.0240
11324,-0.9800,-0.0234,0.2415,-0.0611,-0.0695,0.0240
11334,-0.9880,-0.0220,0.2351,-0.0306,-0.0695,-0.0371
11344,-0.9790,-0.0215,0.2434,-0.0306,-0.0084,-0.0829
11354,-0.9817,-0.0225,0.2373,0.0610,0.0832,0.0392
11364,-0.9851,-0.0269,0.2427,-0.0001,0.1290,0.0087
11374,-0.9814,-0.0237,0.2417,-0.0306,0.1748,-0.0676
11384,-0.9690,-0.0186,0.2329,0.0152,0.1137,-0.0066
11394,-0.9758,-0.0254,0.2351,-0.0001,-0.1916,0.0087
11404,-0.9946,-0.0293,0.2402,-0.0764,-0.0695,-0.0524
11414,-0.9915,-0.0281,0.2356,0.0305,0.0832,0.0545
11424,-0.9766,-0.0259,0.2358,0.0305,0.1595,-0.0218
11434,-0.9734,-0.0190,0.2295,0.0457,-0.0389,0.0698
11444,-0.9744,-0.0193,0.2356,0.0457,-0.3748,-0.0218
11454,-0.9954,-0.0229,0.2415,0.0457,-0.3290,-0.0218
11464,-0.9883,-0.0315,0.2451,0.0305,-0.1153,0.0240
11474,-0.9780,-0.0227,0.2412,-0.0764,0.1137,0.0240
11484,-0.9741,-0.0217,0.2354,-0.0611,0.1443,0.0087
11494,-0.9702,-0.0247,0.2332,-0.0001,0.0069,-0.0218
11504,-0.9822,-0.0225,0.2341,-0.0001,-0.1153,-0.0218
11514,-0.9924,-0.0281,0.2422,0.0610,-0.0542,-0.0066
11524,-0.9839,-0.0234,0.2410,-0.0001,-0.0084,0.0392
11534,-0.9692,-0.0183,0.2307,0.0305,-0.0389,0.0545
11544,-0.9724,-0.0188,0.2322,-0.0764,-0.1611,-0.0829
11554,-0.9829,-0.0237,0.2354,-0.0611,-0.0237,0.0240
11564,-0.9900,-0.0273,0.2385,-0.1069,0.0832,0.0087
11574,-0.9819,-0.0264,0.2444,0.0152,0.1443,0.1308
11584,-0.9709,-0.0229,0.2385,-0.0153,-0.0237,0.0850
11594,-0.9753,-0.0239,0.2344,-0.0153,-0.0542,0.0392
11604,-0.9822,-0.0249,0.2344,-0.0153,0.0527,-0.0371
11614,-0.9812,-0.0229,0.2354,-0.1222,0.1290,-0.0524
11624,-0.9856,-0.0232,0.2380,-0.1222,0.1901,0.0392
11634,-0.9873,-0.0261,0.2400,-0.0917,0.0832,0.0087
11644,-0.9780,-0.0254,0.2383,0.0305,-0.1153,0.0087
11654,-0.9680,-0.0227,0.2371,0.0915,-0.1763,0.0392
11664,-0.9812,-0.0215,0.2361,0.0610,-0.1305,-0.0524
11674,-0.9856,-0.0232,0.2390,-0.0153,-0.0084,-0.0676
11684,-0.9897,-0.0261,0.2368,-0.0764,0.1748,-0.1287
11694,-0.9866,-0.0251,0.2371,0.0305,0.0221,-0.0829
11704,-0.9792,-0.0220,0.2278,0.0152,-0.1305,0.0087
11714,-0.9678,-0.0256,0.2327,0.0305,-0.1458,-0.0524
11724,-0.9775,-0.0242,0.2419,-0.0306,-0.0847,-0.1134
11734,-0.9873,-0.0273,0.2458,-0.0001,0.0069,-0.1134
11744,-0.9846,-0.0232,0.2454,-0.0306,0.1748,-0.1440
11754,-0.9773,-0.0234,0.2366,-0.0001,0.0221,-0.0982
11764,-0.9771,-0.0239,0.2366,0.0305,-0.1611,-0.0218
11774,-0.9829,-0.0215,0.2400,0.0305,-0.1916,-0.0066
11784,-0.9883,-0.0249,0.2446,-0.0459,0.0374,0.0698
11794,-0.9817,-0.0229,0.2407,-0.0611,-0.0084,0.1156
11804,-0.9751,-0.0249,0.2371,-0.0001,-0.0695,0.0698
11814,-0.9763,-0.0244,0.2341,-0.0611,-0.0542,0.0392
11824,-0.9788,-0.0200,0.2402,-0.0459,0.0527,-0.0829
11834,-0.9807,-0.0234,0.2385,-0.0611,0.1137,-0.0982
11844,-0.9807,-0.0234,0.2334,-0.0306,0.0679,0.0698
11854,-0.9861,-0.0259,0.2415,0.0305,-0.0084,0.0850
11864,-0.9795,-0.0249,0.2424,0.0915,-0.0084,0.0545
11874,-0.9746,-0.0186,0.2280,0.0305,-0.1763,0.0698
11884,-0.9792,-0.0203,0.2380,0.0152,-0.2985,0.1156
11894,-0.9927,-0.0271,0.2380,-0.0001,-0.0542,0.0240
11904,-0.9878,-0.0293,0.2395,0.0763,0.1595,0.1156
11914,-0.9746,-0.0200,0.2329,0.0457,0.2206,0.0850
11924,-0.9648,-0.0203,0.2212,0.0763,-0.0389,-0.0066
11934,-0.9714,-0.0220,0.2346,-0.0153,-0.2985,0.0392
11944,-0.9932,-0.0266,0.2449,-0.0459,-0.2374,-0.0676
11954,-0.9993,-0.0286,0.2466,-0.0153,0.0527,0.0392
11964,-0.9736,-0.0225,0.2400,0.0305,-0.0084,0.0087
11974,-0.9739,-0.0178,0.2295,0.0152,0.0527,-0.0218
11984,-0.9739,-0.0188,0.2295,-0.0153,-0.0847,-0.0371
11994,-0.9761,-0.0244,0.2400,0.0763,-0.1611,-0.0524
12004,-0.9934,-0.0269,0.2373,-0.0917,0.0527,0.0240
12014,-0.9958,-0.0261,0.2380,-0.0459,0.0985,0.0240
12024,-0.9814,-0.0249,0.2373,-0.0001,0.1443,0.0545
12034,-0.9705,-0.0198,0.2285,0.0152,0.1443,0.0850
12044,-0.9678,-0.0247,0.2346,0.0457,-0.2374,-0.0218
12054,-0.9858,-0.0288,0.2429,0.0152,-0.3137,-0.0371
12064,-0.9990,-0.0320,0.2439,0.0152,-0.0847,-0.0371
12074,-0.9893,-0.0308,0.2468,-0.0459,0.0832,0.0240
12084,-0.9749,-0.0269,0.2339,-0.0001,0.0527,0.0850
12094,-0.9724,-0.0249,0.2327,-0.0459,-0.0542,0.0698
12104,-0.9819,-0.0271,0.2358,0.0152,-0.1611,0.0240
12114,-0.9868,-0.0247,0.2393,-0.0001,-0.0847,0.0850
12124,-0.9841,-0.0227,0.2390,0.0610,0.0221,0.1461
12134,-0.9783,-0.0212,0.2375,-0.0001,0.0832,0.1308
12144,-0.9763,-0.0190,0.2280,0.0152,0.0985,-0.0524
12154,-0.9778,-0.0212,0.2344,-0.0459,-0.0084,-0.0829
12164,-0.9863,-0.0247,0.2310,-0.0764,0.0374,-0.0066
12174,-0.9888,-0.0264,0.2388,-0.0764,0.1748,0.0087
12184,-0.9812,-0.0222,0.2456,-0.0764,0.2206,0.0392
12194,-0.9812,-0.0288,0.2351,-0.0001,0.0221,0.0087
12204,-0.9697,-0.0247,0.2419,-0.0001,-0.2069,-0.0066
12214,-0.9817,-0.0242,0.2327,0.0152,-0.1458,-0.1745
12224,-0.9851,-0.0254,0.2349,-0.0611,0.0985,-0.1745
12234,-0.9841,-0.0283,0.2402,-0.0153,0.0832,-0.0982
12244,-0.9856,-0.0247,0.2383,0.0457,0.0221,0.0087
12254,-0.9785,-0.0200,0.2349,0.0915,-0.1916,-0.0371
12264,-0.9802,-0.0239,0.2402,0.0763,-0.2374,-0.0371
12274,-0.9812,-0.0266,0.2363,0.0457,-0.0389,0.0087
12284,-0.9854,-0.0247,0.2390,-0.0153,0.0832,0.0545
12294,-0.9761,-0.0222,0.2332,-0.1069,0.0374,-0.0218
12304,-0.9749,-0.0234,0.2385,-0.0306,0.0832,-0.0218
12314,-0.9834,-0.0205,0.2361,-0.0306,0.1137,-0.0676
12324,-0.9797,-0.0208,0.2336,0.0305,0.2053,-0.0066
12334,-0.9814,-0.0256,0.2307,0.0152,0.0221,-0.0829
12344,-0.9795,-0.0256,0.2390,0.0610,-0.1916,-0.0066
12354,-0.9824,-0.0288,0.2368,0.0457,-0.0389,-0.0524
12364,-0.9829,-0.0256,0.2400,-0.0459,0.1443,-0.0218
12374,-0.9780,-0.0237,0.2356,0.0152,0.0832,-0.0371
12384,-0.9780,-0.0259,0.2380,0.0763,0.0374,-0.1440
12394,-0.9832,-0.0276,0.2354,0.0610,-0.0389,-0.1592
12404,-0.9863,-0.0273,0.2373,0.0152,-0.0237,-0.1134
12414,-0.9805,-0.0261,0.2385,-0.0153,-0.0084,-0.0524
12424,-0.9817,-0.0234,0.2317,0.0457,0.0069,-0.0066
12434,-0.9773,-0.0266,0.2361,0.0457,-0.1611,-0.0218
12444,-0.9834,-0.0298,0.2349,-0.0306,-0.0847,0.0087
12454,-0.9783,-0.0203,0.2407,0.0152,-0.1000,0.0087
12464,-0.9795,-0.0239,0.2417,0.0610,-0.0542,0.0545
12474,-0.9856,-0.0271,0.2415,0.0305,0.0832,0.0087
12484,-0.9836,-0.0232,0.2336,-0.0001,0.0221,-0.0218
12494,-0.9792,-0.0234,0.2329,0.0915,-0.0847,0.0698
12504,-0.9797,-0.0210,0.2344,0.0610,-0.2374,0.0545
12514,-0.9812,-0.0220,0.2310,0.0610,-0.1916,0.0240
12524,-0.9846,-0.0273,0.2354,-0.0611,0.0985,-0.0066
12534,-0.9817,-0.0256,0.2456,-0.0153,0.1901,0.0698
12544,-0.9792,-0.0203,0.2334,-0.0001,-0.0084,0.0698
12554,-0.9719,-0.0242,0.2456,-0.0001,-0.0389,0.0240
12564,-0.9841,-0.0227,0.2429,-0.0306,-0.0542,0.0087
12574,-0.9883,-0.0295,0.2373,-0.0001,0.0221,-0.0982
12584,-0.9856,-0.0273,0.2310,-0.0306,0.0832,-0.0066
12594,-0.9822,-0.0259,0.2366,-0.0611,0.0221,0.0698
12604,-0.9790,-0.0217,0.2295,-0.0306,-0.0084,0.0240
12614,-0.9802,-0.0247,0.2354,0.1068,-0.0084,0.0240
12624,-0.9785,-0.0254,0.2310,0.0457,0.0832,-0.0371
12634,-0.9822,-0.0259,0.2346,0.0305,0.1443,-0.0218
12644,-0.9805,-0.0222,0.2378,0.0610,0.0679,0.0087
12654,-0.9788,-0.0247,0.2295,0.0152,-0.1611,-0.0218
12664,-0.9773,-0.0232,0.2378,-0.0459,-0.2069,-0.0829
12674,-0.9839,-0.0271,0.2361,-0.0611,-0.0389,-0.0218
12684,-0.9802,-0.0305,0.2390,-0.0306,0.1443,0.1156
12694,-0.9763,-0.0261,0.2356,0.0763,0.1595,0.0392
12704,-0.9780,-0.0249,0.2393,0.0457,-0.0389,0.0392
12714,-0.9734,-0.0281,0.2380,0.0915,-0.1305,-0.0524
12724,-0.9844,-0.0269,0.2400,-0.0306,-0.1305,-0.0371
12734,-0.9880,-0.0259,0.2383,0.0457,0.0069,-0.0218
12744,-0.9873,-0.0249,0.2356,0.0152,0.1290,-0.0218
12754,-0.9814,-0.0249,0.2327,0.0610,-0.0084,-0.0371
12764,-0.9790,-0.0239,0.2302,0.1068,-0.1153,-0.0066
12774,-0.9802,-0.0264,0.2371,0.0305,0.0069,0.0392
12784,-0.9788,-0.0247,0.2383,0.0305,0.0679,0.0545
12794,-0.9817,-0.0247,0.2336,-0.0306,0.0221,-0.0371
12804,-0.9836,-0.0181,0.2395,0.1068,-0.0542,-0.0066
12814,-0.9802,-0.0186,0.2415,0.0915,-0.0389,-0.0524
12824,-0.9844,-0.0232,0.2375,-0.0001,0.1443,0.0240
12834,-0.9797,-0.0239,0.2329,-0.0611,0.2053,0.0392
12844,-0.9658,-0.0195,0.2495,-0.1069,0.0374,-0.0524
12854,-0.9783,-0.0229,0.2415,-0.0917,0.0527,-0.0829
12864,-0.9851,-0.0293,0.2417,-0.1069,0.2206,-0.1440
12874,-0.9880,-0.0281,0.2427,-0.0306,0.0221,-0.0524
12884,-0.9741,-0.0217,0.2344,-0.0306,-0.2221,-0.0218
12894,-0.9885,-0.0256,0.2366,-0.0153,-0.1611,-0.0371
12904,-0.9905,-0.0269,0.2322,-0.0459,-0.1000,-0.0371
12914,-0.9851,-0.0288,0.2356,0.0152,-0.0695,0.0240
12924,-0.9790,-0.0288,0.2380,-0.0001,-0.1458,0.0240
12934,-0.9749,-0.0266,0.2388,-0.0001,-0.2374,0.1156
12944,-0.9761,-0.0266,0.2351,-0.0001,-0.1763,-0.0066
12954,-0.9834,-0.0278,0.2402,0.0457,-0.0695,0.0087
12964,-0.9827,-0.0249,0.2385,-0.0001,-0.0389,0.0240
12974,-0.9775,-0.0256,0.2375,0.0763,0.0679,0.1308
12984,-0.9800,-0.0232,0.2405,0.0457,0.1137,0.1003
12994,-0.9761,-0.0244,0.2427,0.0457,0.0069,0.0545
13004,-0.9802,-0.0222,0.2351,0.0152,0.1137,-0.0218
13014,-0.9849,-0.0237,0.2397,0.0305,0.2969,0.1156
13024,-0.9836,-0.0251,0.2351,0.0152,0.1595,0.0545
13034,-0.9790,-0.0183,0.2312,0.0915,-0.1153,0.0698
13044,-0.9832,-0.0232,0.2383,0.0305,-0.1611,0.1156
13054,-0.9849,-0.0264,0.2336,-0.0611,0.0069,0.0545
13064,-0.9841,-0.0256,0.2402,-0.0764,0.2511,0.0392
13074,-0.9775,-0.0232,0.2358,-0.1222,0.0832,0.0087
13084,-0.9819,-0.0271,0.2349,-0.0611,0.1443,-0.0371
13094,-0.9873,-0.0276,0.2397,0.0152,0.0679,-0.0371
13104,-0.9814,-0.0237,0.2390,0.0915,-0.0084,0.0545
13114,-0.9849,-0.0259,0.2456,-0.0001,0.0221,0.0240
13124,-0.9829,-0.0261,0.2358,0.0152,0.0374,0.0087
13134,-0.9741,-0.0200,0.2354,0.0305,-0.1611,0.0698
13144,-0.9773,-0.0215,0.2422,-0.0459,-0.2069,-0.0676
13154,-0.9802,-0.0208,0.2422,-0.1375,-0.0542,-0.0982
13164,-0.9866,-0.0256,0.2322,0.0152,0.1595,-0.0371
13174,-0.9802,-0.0232,0.2332,0.0457,0.0679,-0.0982
13184,-0.9753,-0.0198,0.2336,0.0457,-0.1153,-0.1898
13194,-0.9856,-0.0222,0.2437,-0.0611,-0.0542,-0.1745
13204,-0.9888,-0.0215,0.2339,-0.0611,0.0832,-0.1287
13214,-0.9866,-0.0244,0.2388,0.0457,0.2206,-0.0524
13224,-0.9761,-0.0225,0.2371,0.1221,0.0832,-0.0982
13234,-0.9761,-0.0212,0.2427,0.0915,-0.1611,-0.1287
13244,-0.9883,-0.0266,0.2395,0.0305,-0.1153,-0.2356
13254,-0.9900,-0.0232,0.2346,0.0763,-0.0542,-0.0982
13264,-0.9817,-0.0251,0.2339,0.0305,0.1137,0.0545
13274,-0.9834,-0.0225,0.2375,-0.0001,0.1290,0.1308
13284,-0.9744,-0.0244,0.2383,-0.0459,0.0221,0.1308
13294,-0.9717,-0.0215,0.2439,-0.0306,-0.2069,0.1156
13304,-0.9609,-0.0232,0.2441,-0.1222,-0.4359,0.1308
13314,-0.9736,-0.0227,0.2419,0.0152,-0.0847,-0.0066
13324,-0.9944,-0.0266,0.2473,-0.0611,0.3275,-0.1592
13334,-0.9885,-0.0222,0.2322,0.0457,0.3733,-0.0982
13344,-0.9812,-0.0186,0.2190,0.1068,0.0679,-0.1440
13354,-0.9861,-0.0190,0.2258,-0.0001,-0.2832,-0.1440
13364,-0.9851,-0.0205,0.2314,-0.1069,-0.2527,-0.1745
13374,-0.9863,-0.0210,0.2324,-0.1680,-0.1916,-0.0371
13384,-0.9824,-0.0227,0.2322,-0.1985,-0.1763,0.0087
13394,-0.9805,-0.0300,0.2378,-0.0611,-0.2832,-0.0371
13404,-0.9778,-0.0266,0.2463,-0.0764,-0.2832,-0.0829
13414,-0.9834,-0.0281,0.2446,-0.0153,-0.1000,-0.1134
13424,-0.9795,-0.0261,0.2429,0.0305,-0.0847,-0.0829
13434,-0.9775,-0.0251,0.2427,0.0305,-0.1611,-0.1287
13444,-0.9812,-0.0247,0.2393,0.0305,-0.0237,-0.0829
13454,-0.9849,-0.0266,0.2383,0.0305,0.2053,-0.0371
13464,-0.9814,-0.0286,0.2339,-0.0001,0.1137,0.0087
13474,-0.9746,-0.0203,0.2380,0.1373,-0.0389,0.1308
13484,-0.9778,-0.0256,0.2329,0.1526,-0.1763,0.0240
13494,-0.9841,-0.0232,0.2249,0.1221,-0.1916,0.0087
13504,-0.9846,-0.0261,0.2280,0.0610,-0.0847,0.0087
13514,-0.9846,-0.0217,0.2319,0.0763,0.0069,0.0545
13524,-0.9841,-0.0178,0.2334,0.0152,-0.1763,0.1156
13534,-0.9766,-0.0190,0.2329,-0.0001,-0.3595,0.0850
13544,-0.9868,-0.0215,0.2344,-0.0611,-0.3595,-0.0218
13554,-0.9858,-0.0239,0.2375,-0.0917,-0.3137,0.0087
13564,-0.9753,-0.0249,0.2422,-0.0306,-0.1458,-0.0066
13574,-0.9788,-0.0232,0.2451,0.0152,-0.1458,-0.0829
13584,-0.9709,-0.0237,0.2427,-0.0306,-0.1763,-0.1745
13594,-0.9868,-0.0291,0.2429,0.0305,-0.0542,-0.1134
13604,-0.9883,-0.0322,0.2368,0.0457,-0.0847,-0.0676
13614,-0.9814,-0.0300,0.2395,0.1068,-0.2069,0.1308
13624,-0.9800,-0.0266,0.2356,0.1068,-0.2221,0.0545
13634,-0.9890,-0.0317,0.2354,0.1373,-0.1000,0.0698
13644,-0.9841,-0.0315,0.2397,0.0457,-0.0237,0.1614
13654,-0.9819,-0.0276,0.2344,0.0152,0.0527,0.1919
13664,-0.9802,-0.0234,0.2361,0.0763,0.1901,0.2835
13674,-0.9807,-0.0237,0.2368,-0.0001,0.1595,0.2682
13684,-0.9756,-0.0227,0.2371,0.0763,0.0374,0.1614
13694,-0.9854,-0.0186,0.2346,-0.0153,0.0221,0.0850
13704,-0.9805,-0.0203,0.2322,0.0152,0.0985,0.1308
13714,-0.9792,-0.0176,0.2302,-0.0153,0.0832,-0.0218
13724,-0.9768,-0.0166,0.2405,0.0152,-0.0847,0.1003
13734,-0.9844,-0.0203,0.2390,0.0152,-0.1000,0.0087
13744,-0.9795,-0.0210,0.2429,0.0305,-0.1916,0.0545
13754,-0.9783,-0.0271,0.2393,0.0152,-0.1763,-0.0066
13764,-0.9785,-0.0256,0.2437,-0.0001,-0.0542,-0.0218
13774,-0.9873,-0.0291,0.2417,0.0457,-0.0389,-0.0218
13784,-0.9866,-0.0286,0.2334,0.0915,0.0527,0.0392
13794,-0.9783,-0.0293,0.2334,0.0152,0.0374,-0.0524
13804,-0.9795,-0.0232,0.2368,-0.0611,0.1290,-0.0371
13814,-0.9893,-0.0271,0.2327,-0.0459,0.2206,0.0392
13824,-0.9778,-0.0305,0.2424,-0.0917,0.0985,0.1156
13834,-0.9807,-0.0264,0.2417,0.0763,-0.0237,0.1003
13844,-0.9778,-0.0215,0.2317,-0.0306,-0.0237,0.1003
13854,-0.9797,-0.0212,0.2361,0.0152,-0.0084,0.1003
13864,-0.9761,-0.0210,0.2358,-0.0001,-0.1305,0.1614
13874,-0.9800,-0.0176,0.2334,0.0305,-0.1458,0.0545
13884,-0.9854,-0.0183,0.2295,-0.0001,-0.1611,-0.0829
13894,-0.9849,-0.0242,0.2363,-0.0764,-0.1458,0.0087
13904,-0.9768,-0.0215,0.2317,-0.0306,-0.1153,0.0392
13914,-0.9763,-0.0217,0.2302,0.0152,-0.2221,0.0545
13924,-0.9768,-0.0249,0.2341,0.0152,-0.3443,0.0545
13934,-0.9822,-0.0310,0.2417,0.0152,-0.2832,-0.0371
13944,-0.9868,-0.0276,0.2368,0.0610,-0.0389,0.0850
13954,-0.9807,-0.0305,0.2334,0.0152,0.0679,0.0850
13964,-0.9778,-0.0269,0.2397,0.0457,0.0527,-0.0066
13974,-0.9849,-0.0295,0.2368,-0.0001,0.0527,0.0240
13984,-0.9844,-0.0281,0.2393,-0.0306,0.0374,-0.0066
13994,-0.9905,-0.0320,0.2378,0.0305,0.0374,0.0545
14004,-0.9824,-0.0215,0.2417,0.0457,-0.1305,0.1766
14014,-0.9795,-0.0195,0.2349,-0.0001,0.0527,0.1308
14024,-0.9800,-0.0217,0.2295,0.0610,-0.1153,0.1461
14034,-0.9709,-0.0164,0.2361,0.0152,-0.3595,0.0850
14044,-0.9854,-0.0200,0.2368,0.0152,-0.2069,-0.0066
14054,-0.9880,-0.0195,0.2346,-0.0153,0.0221,0.0392
14064,-0.9849,-0.0229,0.2410,0.0152,-0.0237,0.1308
14074,-0.9749,-0.0188,0.2444,0.0915,-0.0847,0.0087
14084,-0.9805,-0.0205,0.2361,0.0763,-0.2527,-0.0676
14094,-0.9792,-0.0242,0.2297,-0.0306,-0.4206,-0.1134
14104,-0.9817,-0.0205,0.2388,-0.0459,-0.3901,-0.0982
14114,-0.9807,-0.0293,0.2478,-0.0764,0.0221,-0.0524
14124,-0.9890,-0.0300,0.2407,-0.0306,0.2664,-0.0829
14134,-0.9739,-0.0264,0.2373,0.0152,0.2664,-0.0676
14144,-0.9741,-0.0283,0.2373,-0.0611,0.0527,-0.0829
14154,-0.9792,-0.0222,0.2358,0.0152,-0.1305,-0.1592
14164,-0.9858,-0.0242,0.2390,0.0152,-0.1916,-0.1134
14174,-0.9949,-0.0217,0.2400,-0.0306,-0.1000,-0.0218
14184,-0.9866,-0.0261,0.2361,-0.0306,-0.0237,0.1919
14194,-0.9766,-0.0220,0.2332,0.0763,-0.1611,0.1614
14204,-0.9731,-0.0215,0.2329,0.0305,-0.4206,0.1003
14214,-0.9812,-0.0242,0.2332,-0.0459,-0.2832,-0.1134
14224,-0.9832,-0.0247,0.2375,0.0610,-0.2069,-0.2203
14234,-0.9824,-0.0193,0.2351,0.1679,-0.0695,-0.0829
14244,-0.9817,-0.0193,0.2390,0.0152,-0.0542,-0.2814
14254,-0.9822,-0.0271,0.2434,-0.0153,0.0374,-0.2508
14264,-0.9841,-0.0293,0.2344,-0.1222,0.1290,-0.1287
14274,-0.9780,-0.0291,0.2366,-0.0764,-0.0084,-0.1287
14284,-0.9792,-0.0256,0.2397,-0.0306,-0.1458,-0.0371
14294,-0.9785,-0.0266,0.2356,-0.0306,-0.0695,-0.0982
14304,-0.9790,-0.0220,0.2361,-0.0153,-0.1000,-0.1440
14314,-0.9792,-0.0276,0.2410,0.0763,-0.0542,-0.0829
14324,-0.9819,-0.0264,0.2439,-0.0001,0.1443,-0.1440
14334,-0.9856,-0.0264,0.2397,-0.0459,0.0985,-0.1134
14344,-0.9780,-0.0239,0.2410,-0.0001,0.0069,0.0240
14354,-0.9763,-0.0266,0.2405,-0.0153,-0.1153,0.0698
14364,-0.9868,-0.0303,0.2410,-0.0001,-0.0237,0.1308
14374,-0.9885,-0.0298,0.2397,0.0457,0.1290,0.1156
14384,-0.9775,-0.0273,0.2363,-0.0001,0.1443,0.1308
14394,-0.9788,-0.0200,0.2346,-0.0001,-0.0847,0.1156
14404,-0.9768,-0.0217,0.2307,0.0610,-0.2985,0.1156
14414,-0.9773,-0.0247,0.2395,0.0457,-0.1000,0.0240
14424,-0.9880,-0.0227,0.2415,-0.0153,0.1137,0.0850
14434,-0.9839,-0.0173,0.2339,-0.0001,0.0527,0.1003
14444,-0.9756,-0.0190,0.2351,-0.0306,0.0985,0.0698
14454,-0.9827,-0.0264,0.2380,-0.0001,0.1901,-0.0218
14464,-0.9822,-0.0232,0.2390,0.0763,0.1443,0.0545
14474,-0.9761,-0.0251,0.2388,0.1068,-0.0237,-0.0066
14484,-0.9805,-0.0225,0.2341,0.0763,0.0679,-0.0066
14494,-0.9873,-0.0259,0.2351,-0.0153,-0.0389,0.0240
14504,-0.9851,-0.0261,0.2283,0.0152,-0.0237,0.0240
14514,-0.9841,-0.0247,0.2361,-0.0611,0.0069,0.1461
14524,-0.9788,-0.0261,0.2314,-0.0459,0.1443,0.1156
14534,-0.9841,-0.0293,0.2397,-0.0764,-0.0237,0.1766
14544,-0.9890,-0.0283,0.2395,0.0152,-0.2679,0.1766
14554,-0.9780,-0.0239,0.2441,0.1373,-0.4817,0.2835
14564,-0.9731,-0.0217,0.2439,0.0457,-0.2985,0.2377
14574,-0.9714,-0.0195,0.2383,0.0610,-0.0695,0.0850
14584,-0.9856,-0.0212,0.2388,-0.0764,0.2664,-0.0524
14594,-0.9873,-0.0237,0.2415,-0.0306,0.1748,-0.1134
14604,-0.9902,-0.0227,0.2314,0.0152,0.0679,-0.1134
14614,-0.9832,-0.0186,0.2354,-0.0153,-0.0847,-0.0371
14624,-0.9792,-0.0215,0.2327,-0.0001,-0.2221,-0.0066
14634,-0.9768,-0.0208,0.2314,0.0610,-0.2221,-0.1134
14644,-0.9836,-0.0181,0.2349,-0.0306,-0.3290,-0.0676
14654,-0.9807,-0.0222,0.2441,-0.0917,-0.3748,-0.0676
14664,-0.9871,-0.0234,0.2429,-0.1069,-0.2374,-0.1134
14674,-0.9846,-0.0234,0.2375,-0.0611,-0.2374,-0.1134
14684,-0.9785,-0.0229,0.2332,-0.0001,-0.2374,-0.1898
14694,-0.9854,-0.0244,0.2327,-0.0459,-0.2527,-0.2203
14704,-0.9802,-0.0293,0.2439,0.0152,-0.2374,-0.2050
14714,-0.9741,-0.0261,0.2383,-0.0306,-0.2374,-0.0676
14724,-0.9780,-0.0249,0.2417,0.0305,-0.1305,-0.0218
14734,-0.9800,-0.0288,0.2446,-0.0153,-0.0695,-0.0371
14744,-0.9812,-0.0271,0.2419,0.0610,0.1595,-0.0218
14754,-0.9810,-0.0256,0.2378,0.0305,0.1290,-0.0066
14764,-0.9778,-0.0276,0.2368,0.0915,0.0221,-0.0066
14774,-0.9856,-0.0269,0.2361,0.0763,0.0527,0.0240
14784,-0.9822,-0.0269,0.2302,0.0457,0.0374,0.1614
14794,-0.9771,-0.0291,0.2266,0.0610,-0.0542,0.2224
14804,-0.9758,-0.0247,0.2322,0.0305,-0.1458,0.1461
14814,-0.9836,-0.0256,0.2358,0.0152,0.0069,0.1003
14824,-0.9812,-0.0251,0.2444,-0.0611,0.0985,0.1156
14834,-0.9814,-0.0212,0.2378,-0.0001,0.1290,0.0850
14844,-0.9736,-0.0227,0.2424,0.0763,0.0221,0.0545
14854,-0.9758,-0.0200,0.2371,-0.0001,-0.1153,0.1308
14864,-0.9775,-0.0203,0.2407,0.0610,-0.2374,0.1003
14874,-0.9827,-0.0217,0.2400,-0.0153,-0.1153,0.1156
14884,-0.9834,-0.0190,0.2471,-0.0917,-0.0542,0.1156
14894,-0.9773,-0.0229,0.2346,0.0305,-0.0389,0.1003
14904,-0.9775,-0.0242,0.2383,-0.0306,0.0069,0.0087
14914,-0.9758,-0.0190,0.2349,-0.0153,-0.1611,0.0850
14924,-0.9868,-0.0225,0.2400,-0.0153,-0.0084,0.0545
14934,-0.9841,-0.0244,0.2400,-0.0001,0.1290,-0.0066
14944,-0.9810,-0.0212,0.2375,-0.0306,-0.0084,0.0087
14954,-0.9744,-0.0203,0.2375,-0.0764,-0.1458,-0.0676
14964,-0.9812,-0.0195,0.2346,-0.0917,-0.2374,-0.0676
14974,-0.9868,-0.0244,0.2417,-0.0764,-0.0542,-0.1440
14984,-0.9863,-0.0276,0.2415,-0.0459,-0.0847,-0.0524
14994,-0.9819,-0.0249,0.2388,-0.1069,-0.1305,0.0392
15004,-0.9773,-0.0249,0.2415,-0.0306,-0.1763,0.0698
15014,-0.9717,-0.0208,0.2341,-0.0306,-0.2527,0.1003
15024,-0.9773,-0.0215,0.2400,0.0152,-0.2985,-0.0218
15034,-0.9854,-0.0261,0.2422,-0.0764,-0.0542,0.0240
15044,-0.9824,-0.0251,0.2366,-0.0611,-0.1305,-0.0218
15054,-0.9783,-0.0229,0.2371,0.0152,-0.2374,-0.0676
15064,-0.9731,-0.0215,0.2366,0.0305,-0.1763,-0.0829
15074,-0.9780,-0.0227,0.2417,-0.0611,-0.1458,-0.1592
15084,-0.9888,-0.0244,0.2451,-0.1069,0.0069,-0.2050
15094,-0.9900,-0.0286,0.2390,-0.0764,0.0374,-0.1440
15104,-0.9836,-0.0220,0.2356,0.0305,-0.0237,-0.0676
15114,-0.9773,-0.0232,0.2390,0.0152,-0.2374,-0.0829
15124,-0.9810,-0.0251,0.2415,-0.0153,-0.2985,-0.0218
15134,-0.9790,-0.0244,0.2317,-0.0306,-0.2527,-0.0066
15144,-0.9797,-0.0234,0.2346,-0.0459,-0.1916,-0.1134
15154,-0.9807,-0.0273,0.2397,-0.0306,-0.1916,-0.1287
15164,-0.9800,-0.0264,0.2327,-0.1222,-0.1153,-0.0371
15174,-0.9771,-0.0239,0.2407,-0.1069,-0.0389,-0.1592
15184,-0.9749,-0.0220,0.2422,0.0152,-0.1000,-0.0829
15194,-0.9797,-0.0205,0.2317,0.0152,-0.2374,-0.0829
15204,-0.9844,-0.0227,0.2371,0.0152,-0.4206,-0.0829
15214,-0.9829,-0.0198,0.2402,0.0152,-0.4664,-0.1287
15224,-0.9956,-0.0308,0.2209,0.0152,-0.2679,-0.1440
15234,-0.9736,-0.0256,0.2451,-0.0153,-0.2374,-0.1287
15244,-0.9866,-0.0273,0.2351,0.0305,0.0985,-0.0982
15254,-0.9849,-0.0283,0.2375,0.0915,0.0985,-0.0371
15264,-0.9866,-0.0295,0.2400,0.0915,-0.1763,-0.0676
15274,-0.9854,-0.0300,0.2437,0.1221,-0.0847,-0.0371
15284,-0.9851,-0.0339,0.2471,0.1526,0.1290,0.0392
15294,-0.9810,-0.0283,0.2317,0.0915,0.0374,0.1308
15304,-0.9834,-0.0249,0.2419,0.1373,-0.1611,0.2682
15314,-0.9829,-0.0278,0.2483,0.0610,-0.0542,0.3904
15324,-0.9810,-0.0261,0.2429,0.0915,0.0069,0.4209
15334,-0.9768,-0.0249,0.2356,0.1221,-0.2832,0.4820
15344,-0.9768,-0.0173,0.2385,0.1373,-0.2679,0.4056
15354,-0.9790,-0.0164,0.2339,0.0763,-0.1458,0.3446
15364,-0.9729,-0.0146,0.2263,0.0305,-0.1916,0.1614
15374,-0.9749,-0.0122,0.2310,-0.0153,-0.2374,0.0087
15384,-0.9788,-0.0125,0.2366,-0.0611,-0.1305,-0.1592
15394,-0.9824,-0.0132,0.2346,-0.0611,0.0527,-0.1592
15404,-0.9768,-0.0122,0.2368,-0.0764,-0.0695,-0.2814
15414,-0.9778,-0.0161,0.2400,-0.0459,-0.0237,-0.2966
15424,-0.9800,-0.0229,0.2461,-0.0306,0.1443,-0.2508
15434,-0.9763,-0.0281,0.2444,-0.0001,0.1901,-0.2814
15444,-0.9805,-0.0251,0.2437,-0.0459,0.1901,-0.3272
15454,-0.9729,-0.0278,0.2410,-0.1069,-0.1153,-0.3119
15464,-0.9844,-0.0342,0.2451,-0.0459,-0.0695,-0.2814
15474,-0.9971,-0.0334,0.2415,-0.0153,0.0527,-0.2814
15484,-0.9880,-0.0337,0.2356,-0.0001,0.0374,-0.0982
15494,-0.9785,-0.0325,0.2361,-0.0153,-0.0847,0.0698
15504,-0.9771,-0.0293,0.2390,0.0457,-0.1458,-0.0066
15514,-0.9912,-0.0310,0.2432,0.0152,0.0985,0.0698
15524,-0.9834,-0.0308,0.2400,0.0763,0.0221,0.1461
15534,-0.9790,-0.0239,0.2397,0.0457,-0.0542,0.1614
15544,-0.9783,-0.0212,0.2385,0.1068,-0.2527,0.2682
15554,-0.9773,-0.0178,0.2395,0.0152,-0.1305,0.1919
15564,-0.9788,-0.0173,0.2393,0.0763,-0.1611,0.1461
15574,-0.9775,-0.0171,0.2429,-0.0306,-0.1000,0.1614
15584,-0.9771,-0.0227,0.2432,0.0457,0.0069,0.0545
15594,-0.9817,-0.0242,0.2429,0.0610,0.0832,0.0240
15604,-0.9783,-0.0229,0.2375,0.0915,-0.0237,0.0087
15614,-0.9832,-0.0237,0.2341,0.0457,0.0527,0.0850
15624,-0.9805,-0.0291,0.2354,0.0763,0.0374,0.1003
15634,-0.9824,-0.0261,0.2407,0.1221,0.0527,0.1614
15644,-0.9834,-0.0315,0.2329,0.1068,0.0985,0.1156
15654,-0.9758,-0.0239,0.2378,-0.0611,0.0527,0.1614
15664,-0.9797,-0.0278,0.2380,0.0457,-0.1000,0.0850
15674,-0.9836,-0.0203,0.2390,0.0457,-0.0847,0.0240
15684,-0.9832,-0.0247,0.2368,-0.0001,-0.0847,-0.0982
15694,-0.9822,-0.0208,0.2361,-0.0306,0.0221,-0.0524
15704,-0.9834,-0.0195,0.2332,-0.0611,-0.1611,0.0087
15714,-0.9807,-0.0181,0.2339,-0.0306,-0.3137,0.0087
15724,-0.9746,-0.0203,0.2407,-0.0153,-0.3443,0.1003
15734,-0.9802,-0.0188,0.2388,-0.0306,-0.2527,0.0087
15744,-0.9758,-0.0225,0.2427,-0.0153,-0.0389,-0.0676
15754,-0.9746,-0.0188,0.2366,0.0457,-0.0389,-0.1592
15764,-0.9797,-0.0249,0.2363,0.0305,-0.0084,-0.1745
15774,-0.9817,-0.0264,0.2361,-0.0153,-0.0084,-0.2508
15784,-0.9863,-0.0269,0.2439,-0.0306,-0.0084,-0.1745
15794,-0.9927,-0.0237,0.2407,0.0305,0.1137,-0.1287
15804,-0.9824,-0.0244,0.2349,0.0152,0.1137,-0.0218
15814,-0.9753,-0.0239,0.2332,0.0305,-0.1000,0.0240
15824,-0.9800,-0.0239,0.2349,0.0457,-0.3290,-0.0524
15834,-0.9856,-0.0281,0.2380,-0.0001,-0.2679,-0.0982
15844,-0.9946,-0.0291,0.2361,-0.0459,-0.0084,-0.0371
15854,-0.9858,-0.0200,0.2373,0.0152,-0.1153,0.1003
15864,-0.9727,-0.0227,0.2366,-0.0611,-0.2527,0.1461
15874,-0.9814,-0.0227,0.2434,-0.0153,-0.2374,0.1156
15884,-0.9817,-0.0239,0.2478,-0.0001,-0.0695,0.0240
15894,-0.9739,-0.0266,0.2419,0.0915,-0.0084,0.0698
15904,-0.9736,-0.0256,0.2434,0.0457,-0.1305,-0.0066
15914,-0.9783,-0.0225,0.2439,0.1221,-0.1763,0.0240
15924,-0.9890,-0.0237,0.2410,0.0610,0.0832,-0.0371
15934,-0.9832,-0.0261,0.2295,-0.0153,0.2511,-0.1287
15944,-0.9771,-0.0186,0.2268,0.0457,0.0221,-0.0676
15954,-0.9868,-0.0195,0.2354,-0.0001,-0.0084,-0.1134
15964,-0.9910,-0.0222,0.2380,-0.0459,0.0985,-0.0066
15974,-0.9839,-0.0239,0.2371,-0.0764,0.0832,-0.0218
15984,-0.9744,-0.0208,0.2319,0.0152,-0.1611,0.0392
15994,-0.9724,-0.0203,0.2363,-0.0153,-0.3137,0.0392
16004,-0.9871,-0.0276,0.2368,-0.0459,-0.1763,-0.0982
16014,-0.9861,-0.0271,0.2454,-0.0306,-0.1458,-0.0066
16024,-0.9783,-0.0251,0.2417,-0.0153,-0.2374,0.0545
16034,-0.9722,-0.0242,0.2449,-0.0153,-0.2069,0.0087
16044,-0.9763,-0.0266,0.2429,-0.0153,-0.0389,-0.0676
16054,-0.9824,-0.0298,0.2434,0.0152,0.0679,-0.0829
16064,-0.9775,-0.0259,0.2344,-0.0001,0.1443,0.0087
16074,-0.9753,-0.0203,0.2383,-0.0001,0.1443,-0.0218
16084,-0.9785,-0.0212,0.2417,-0.0611,0.2206,-0.0982
16094,-0.9849,-0.0229,0.2417,-0.0611,0.1443,-0.0676
16104,-0.9817,-0.0198,0.2393,-0.0306,0.0832,-0.0524
16114,-0.9810,-0.0251,0.2410,0.0457,0.0679,-0.0982
16124,-0.9827,-0.0210,0.2378,0.0915,0.0679,-0.0982
16134,-0.9851,-0.0244,0.2324,0.0457,0.0527,0.0392
16144,-0.9839,-0.0266,0.2344,-0.0153,-0.0847,0.0240
16154,-0.9839,-0.0242,0.2280,0.0457,0.0679,0.1461
16164,-0.9827,-0.0232,0.2329,0.0763,0.0221,-0.0218
16174,-0.9814,-0.0210,0.2415,-0.0459,-0.1916,0.0240
16184,-0.9841,-0.0195,0.2358,-0.0611,-0.2527,0.1003
16194,-0.9832,-0.0251,0.2456,-0.0306,-0.1763,0.0698
16204,-0.9758,-0.0222,0.2463,-0.0306,0.0069,0.0545
16214,-0.9758,-0.0264,0.2446,-0.0611,0.0221,0.0392
16224,-0.9717,-0.0242,0.2500,0.0915,0.0069,-0.0524
16234,-0.9795,-0.0217,0.2397,0.0305,-0.0237,-0.1440
16244,-0.9795,-0.0195,0.2327,0.0610,0.1137,-0.0982
16254,-0.9775,-0.0205,0.2368,-0.0153,0.0985,-0.1745
16264,-0.9863,-0.0215,0.2375,-0.0459,0.1901,-0.2966
16274,-0.9900,-0.0276,0.2349,-0.1375,0.1443,-0.2203
16284,-0.9827,-0.0244,0.2339,-0.0764,0.0221,-0.1745
16294,-0.9805,-0.0283,0.2358,-0.0611,-0.0695,-0.1440
16304,-0.9802,-0.0276,0.2424,0.0305,-0.0695,-0.1134
16314,-0.9846,-0.0293,0.2400,0.0457,0.0069,-0.0218
16324,-0.9841,-0.0269,0.2454,0.0457,0.0069,0.0087
16334,-0.9880,-0.0273,0.2429,0.0610,-0.0542,0.0698
16344,-0.9846,-0.0288,0.2371,0.0457,-0.1153,0.0545
16354,-0.9785,-0.0251,0.2383,0.0457,-0.2985,0.1003
16364,-0.9807,-0.0239,0.2402,0.0457,-0.3901,-0.0066
16374,-0.9844,-0.0305,0.2427,-0.0306,-0.0695,0.0698
16384,-0.9863,-0.0232,0.2454,-0.0459,0.0679,0.0698
16394,-0.9802,-0.0229,0.2371,0.0305,0.1290,0.1461
16404,-0.9749,-0.0171,0.2354,0.0457,-0.0084,0.0545
16414,-0.9734,-0.0151,0.2329,0.0915,-0.1458,-0.0218
16424,-0.9805,-0.0134,0.2322,-0.0153,-0.2832,-0.0982
16434,-0.9883,-0.0242,0.2478,-0.1069,-0.0237,-0.1134
16444,-0.9807,-0.0205,0.2437,-0.0917,0.0832,0.1156
16454,-0.9839,-0.0220,0.2390,-0.0001,-0.0389,0.0545
16464,-0.9756,-0.0217,0.2388,-0.0459,-0.1916,0.0392
16474,-0.9768,-0.0237,0.2444,-0.0001,-0.1000,-0.0982
16484,-0.9805,-0.0273,0.2415,-0.0001,0.0527,-0.0982
16494,-0.9919,-0.0251,0.2324,0.0152,0.0527,-0.0676
