timestamp_ms,ax,ay,az,gx,gy,gz
3964,-0.0024,-0.9805,0.1064,-0.5008,0.4444,0.1462
3974,-0.0056,-0.9805,0.0984,-0.5466,0.3681,0.0393
3984,-0.0051,-0.9819,0.1035,-0.4855,0.3681,0.1156
3994,-0.0027,-0.9773,0.0996,-0.3176,0.2460,0.2989
4004,-0.0066,-0.9802,0.1047,-0.3023,0.2765,0.2683
4014,-0.0081,-0.9810,0.1035,-0.5466,0.2612,0.1920
4024,-0.0068,-0.9790,0.1035,-0.4397,0.0322,0.0240
4034,-0.0037,-0.9783,0.1050,-0.3939,0.0169,-0.0523
4044,-0.0105,-0.9805,0.1047,-0.5313,0.0933,0.0546
4054,-0.0085,-0.9805,0.1008,-0.4855,0.1849,0.1309
4064,-0.0039,-0.9805,0.0996,-0.4550,0.3376,0.1462
4074,-0.0125,-0.9792,0.1018,-0.5008,0.4902,0.2683
4084,-0.0071,-0.9788,0.1084,-0.4397,0.3834,0.3294
4094,-0.0073,-0.9785,0.0977,-0.5008,0.4902,0.3447
4104,-0.0100,-0.9854,0.0986,-0.4855,0.4750,0.2989
4114,-0.0078,-0.9817,0.1067,-0.4397,0.2918,0.1309
4124,-0.0051,-0.9829,0.1055,-0.4550,0.2918,0.0240
4134,-0.0066,-0.9832,0.1067,-0.5008,0.2918,0.0851
4144,-0.0066,-0.9753,0.1006,-0.4092,0.3070,0.1615
4154,-0.0049,-0.9846,0.0994,-0.4550,0.3070,0.2378
4164,-0.0071,-0.9844,0.1050,-0.3481,0.3528,0.2836
4174,-0.0032,-0.9788,0.1013,-0.3176,0.3376,0.2683
4184,-0.0071,-0.9795,0.1055,-0.3023,0.2765,0.2989
4194,-0.0066,-0.9785,0.1072,-0.4092,0.2765,0.3141
4204,-0.0061,-0.9790,0.1086,-0.3939,0.2460,0.2378
4214,-0.0076,-0.9790,0.1113,-0.3481,0.2002,0.2531
4224,-0.0068,-0.9758,0.1052,-0.4550,0.1391,0.3905
4234,-0.0042,-0.9834,0.1057,-0.6534,0.1696,0.4973
4244,-0.0051,-0.9797,0.1042,-0.5618,0.2918,0.5431
4254,-0.0049,-0.9814,0.1016,-0.4702,0.3070,0.4363
4264,-0.0061,-0.9783,0.1028,-0.4244,0.3834,0.3447
4274,-0.0056,-0.9773,0.1064,-0.5313,0.4444,0.3294
4284,-0.0100,-0.9854,0.1025,-0.6687,0.4292,0.2378
4294,-0.0068,-0.9817,0.0974,-0.6687,0.4292,0.0088
4304,-0.0046,-0.9856,0.0996,-0.5466,0.3223,-0.0828
4314,-0.0110,-0.9802,0.0996,-0.4702,0.2307,-0.0676
4324,-0.0022,-0.9771,0.0994,-0.4092,0.2765,0.0393
4334,-0.0044,-0.9763,0.0996,-0.3176,0.3223,0.1309
4344,-0.0063,-0.9817,0.1050,-0.4855,0.4292,0.0393
4354,-0.0044,-0.9790,0.0999,-0.4244,0.4139,-0.0828
4364,-0.0037,-0.9817,0.1003,-0.3328,0.3376,-0.0370
4374,-0.0073,-0.9824,0.1062,-0.3481,0.3528,-0.0065
4384,-0.0066,-0.9827,0.1072,-0.2718,0.2307,0.0698
4394,-0.0056,-0.9785,0.1038,-0.2260,0.2154,0.1156
4404,-0.0034,-0.9771,0.1106,-0.4397,0.1696,0.2378
4414,-0.0071,-0.9817,0.1011,-0.5313,0.2765,0.2378
4424,-0.0022,-0.9792,0.1062,-0.6076,0.1849,0.2225
4434,-0.0068,-0.9819,0.1069,-0.5313,0.3376,0.1920
4444,-0.0054,-0.9792,0.1055,-0.5466,0.3223,0.2225
4454,-0.0078,-0.9805,0.1023,-0.6534,0.3986,0.2225
4464,-0.0068,-0.9824,0.1086,-0.5313,0.4444,0.3141
4474,-0.0056,-0.9834,0.0977,-0.4244,0.3681,0.2531
4484,-0.0042,-0.9795,0.1021,-0.4702,0.3834,0.2073
4494,-0.0020,-0.9827,0.1008,-0.4244,0.3528,0.2836
4504,-0.0081,-0.9829,0.0977,-0.5924,0.2612,0.1920
4514,-0.0098,-0.9836,0.0945,-0.6687,0.3223,0.1462
4524,-0.0081,-0.9788,0.1050,-0.4092,0.2612,0.1615
4534,-0.0098,-0.9790,0.1067,-0.4244,0.3223,0.1462
4544,-0.0046,-0.9802,0.1006,-0.4702,0.3376,0.3141
4554,-0.0063,-0.9768,0.0986,-0.4855,0.2765,0.2989
4564,-0.0063,-0.9773,0.1013,-0.5313,0.2307,0.1462
4574,-0.0063,-0.9788,0.1089,-0.5466,0.2154,0.0240
4584,-0.0049,-0.9780,0.1018,-0.5160,0.3528,0.0546
4594,-0.0078,-0.9810,0.1108,-0.3634,0.2307,0.1462
4604,-0.0051,-0.9810,0.1108,-0.4092,0.3528,0.1156
4614,-0.0078,-0.9788,0.0991,-0.5160,0.3834,0.0546
4624,0.0010,-0.9783,0.1025,-0.4092,0.3528,0.0698
4634,-0.0063,-0.9792,0.1038,-0.5008,0.2460,0.1615
4644,-0.0061,-0.9827,0.0986,-0.6076,0.3223,0.1156
4654,-0.0044,-0.9812,0.1033,-0.5771,0.3376,0.1920
4664,-0.0051,-0.9841,0.1003,-0.4244,0.3986,0.2378
4674,-0.0076,-0.9805,0.1047,-0.2870,0.4139,0.2989
4684,-0.0010,-0.9763,0.1008,-0.1649,0.3834,0.4210
4694,-0.0039,-0.9758,0.1006,-0.3786,0.3528,0.3752
4704,-0.0066,-0.9805,0.1060,-0.4855,0.3681,0.2531
4714,-0.0066,-0.9802,0.1023,-0.5008,0.2918,0.1615
4724,-0.0051,-0.9805,0.1045,-0.4855,0.2612,0.1156
4734,-0.0061,-0.9819,0.1023,-0.3786,0.3223,0.1004
4744,-0.0059,-0.9753,0.1069,-0.2565,0.3681,0.1920
4754,-0.0098,-0.9795,0.0984,-0.5466,0.5666,0.1309
4764,-0.0054,-0.9822,0.1001,-0.5618,0.4750,0.1767
4774,-0.0078,-0.9805,0.1060,-0.5466,0.4139,0.0851
4784,-0.0068,-0.9797,0.0984,-0.4397,0.3528,0.1004
4794,-0.0051,-0.9822,0.1001,-0.4397,0.4139,0.2073
4804,-0.0046,-0.9771,0.0991,-0.4397,0.4292,0.2683
4814,-0.0044,-0.9800,0.1006,-0.4397,0.3070,0.3447
4824,-0.0020,-0.9773,0.1008,-0.4244,0.2154,0.2836
4834,-0.0039,-0.9788,0.1028,-0.5313,0.2460,0.2073
4844,-0.0076,-0.9854,0.1013,-0.4702,0.0933,0.0393
4854,-0.0107,-0.9824,0.1096,-0.3786,0.0780,-0.0828
4864,-0.0051,-0.9773,0.1021,-0.4092,0.0780,-0.0065
4874,-0.0029,-0.9788,0.1074,-0.4092,0.0780,-0.0065
4884,-0.0071,-0.9817,0.0969,-0.5160,0.2154,0.0851
4894,-0.0049,-0.9827,0.0989,-0.4397,0.2002,0.1615
4904,-0.0051,-0.9807,0.1130,-0.4397,0.2460,0.2531
4914,-0.0042,-0.9802,0.1045,-0.5160,0.2154,0.2683
4924,-0.0066,-0.9778,0.1033,-0.5008,0.2918,0.2531
4934,-0.0061,-0.9805,0.1042,-0.4550,0.3528,0.4363
4944,-0.0042,-0.9805,0.1047,-0.4092,0.4292,0.4210
4954,-0.0051,-0.9751,0.1084,-0.4092,0.3834,0.2836
4964,0.0020,-0.9763,0.1047,-0.5466,0.3834,0.1767
4974,-0.0044,-0.9814,0.1055,-0.6382,0.2765,0.1920
4984,-0.0107,-0.9827,0.0999,-0.6076,0.2612,0.2225
4994,-0.0066,-0.9822,0.1042,-0.4550,0.2002,0.1615
5004,-0.0071,-0.9790,0.0974,-0.3328,0.0780,0.2683
5014,-0.0039,-0.9788,0.0989,-0.3786,0.2307,0.2073
5024,-0.0115,-0.9802,0.0977,-0.3939,0.2154,0.2531
5034,-0.0071,-0.9824,0.1052,-0.3786,0.1696,0.2225
5044,0.0012,-0.9814,0.1016,-0.5160,0.1849,0.1615
5054,-0.0039,-0.9780,0.1050,-0.4550,0.2460,0.2073
5064,-0.0051,-0.9836,0.1062,-0.4092,0.3528,0.2073
5074,-0.0063,-0.9763,0.1077,-0.4092,0.3986,0.2531
5084,-0.0027,-0.9756,0.1045,-0.4092,0.4902,0.2531
5094,-0.0051,-0.9775,0.1084,-0.5313,0.4139,0.2531
5104,-0.0056,-0.9829,0.1006,-0.5924,0.3834,0.1462
5114,-0.0056,-0.9827,0.1091,-0.5924,0.3223,0.1156
5124,-0.0127,-0.9785,0.1042,-0.5160,0.3681,0.0088
5134,-0.0076,-0.9775,0.1033,-0.5008,0.3681,0.1615
5144,-0.0037,-0.9861,0.0981,-0.4855,0.3070,0.1004
5154,-0.0081,-0.9839,0.1028,-0.4702,0.4597,0.0240
5164,-0.0037,-0.9773,0.1003,-0.3786,0.3681,0.0088
5174,-0.0042,-0.9783,0.1079,-0.4702,0.3986,0.0393
5184,-0.0054,-0.9778,0.1047,-0.4855,0.3681,0.1615
5194,-0.0112,-0.9827,0.1062,-0.5466,0.3681,0.1767
5204,-0.0042,-0.9841,0.0999,-0.5008,0.3834,0.1767
5214,-0.0059,-0.9788,0.1016,-0.3939,0.0780,0.1004
5224,-0.0088,-0.9827,0.1086,-0.3328,0.0780,-0.0523
5234,-0.0078,-0.9788,0.1123,-0.3786,0.0627,-0.0370
5244,-0.0076,-0.9739,0.1006,-0.4397,-0.0441,0.0393
5254,-0.0037,-0.9756,0.1079,-0.4855,-0.0441,0.2225
5264,-0.0051,-0.9775,0.1055,-0.5160,-0.0441,0.1920
5274,-0.0024,-0.9790,0.1082,-0.6534,0.0169,0.1767
5284,-0.0059,-0.9822,0.0969,-0.6229,-0.0594,0.1767
5294,-0.0046,-0.9814,0.1023,-0.5924,-0.1510,0.2531
5304,-0.0071,-0.9785,0.1008,-0.5771,-0.2121,0.3599
5314,-0.0044,-0.9814,0.1011,-0.6534,-0.0289,0.3752
5324,-0.0056,-0.9829,0.1008,-0.6534,0.0627,0.3447
5334,-0.0034,-0.9858,0.0955,-0.6229,0.1391,0.2073
5344,-0.0054,-0.9797,0.1008,-0.4855,0.0933,0.1767
5354,-0.0042,-0.9795,0.0986,-0.3481,0.0780,0.2989
5364,-0.0046,-0.9812,0.1035,-0.3786,0.1696,0.3447
5374,-0.0083,-0.9814,0.1016,-0.4550,0.0627,0.3447
5384,-0.0032,-0.9824,0.0962,-0.6076,-0.0441,0.2683
5394,-0.0027,-0.9851,0.1013,-0.5618,0.0017,0.2225
5404,-0.0071,-0.9795,0.1091,-0.4702,0.1391,0.2225
5414,-0.0034,-0.9792,0.1060,-0.5160,0.1696,0.2378
5424,-0.0024,-0.9805,0.1077,-0.5924,0.2307,0.1920
5434,-0.0034,-0.9807,0.0952,-0.6229,0.2918,0.1920
5444,-0.0063,-0.9812,0.1030,-0.5313,0.3376,0.2225
5454,-0.0024,-0.9810,0.1047,-0.5008,0.3376,0.2836
5464,-0.0073,-0.9827,0.1045,-0.4702,0.2765,0.2378
5474,-0.0081,-0.9771,0.0986,-0.5466,0.3986,0.2225
5484,-0.0081,-0.9824,0.1021,-0.4092,0.3223,0.2683
5494,-0.0039,-0.9768,0.1018,-0.3481,0.1696,0.2989
5504,-0.0081,-0.9817,0.1013,-0.4092,0.2154,0.1156
5514,-0.0078,-0.9868,0.0996,-0.4855,0.1238,0.0393
5524,-0.0039,-0.9834,0.0979,-0.4702,0.1391,0.0546
5534,-0.0071,-0.9822,0.1016,-0.3939,0.0780,0.0546
5544,-0.0103,-0.9795,0.1018,-0.3328,0.2307,0.1309
5554,-0.0034,-0.9773,0.1030,-0.3939,0.2154,0.2378
5564,-0.0010,-0.9771,0.0989,-0.5160,0.1696,0.2225
5574,-0.0068,-0.9827,0.1057,-0.6382,0.2154,0.2073
5584,-0.0044,-0.9822,0.0996,-0.5008,0.1544,0.2531
5594,-0.0068,-0.9795,0.1023,-0.5160,0.2460,0.1767
5604,-0.0020,-0.9822,0.1040,-0.5466,0.2460,0.1462
5614,-0.0017,-0.9800,0.0996,-0.4244,0.3376,0.2073
5624,-0.0085,-0.9795,0.1030,-0.3786,0.3681,0.2073
5634,-0.0071,-0.9839,0.0991,-0.4092,0.3986,0.1309
5644,-0.0054,-0.9797,0.1060,-0.4550,0.3070,0.0698
5654,-0.0073,-0.9797,0.1030,-0.4397,0.2307,0.0698
5664,-0.0063,-0.9751,0.1055,-0.4550,0.2307,0.0240
5674,-0.0076,-0.9805,0.1096,-0.5466,0.2765,0.1615
5684,-0.0110,-0.9802,0.0999,-0.4855,0.1238,0.1920
5694,-0.0010,-0.9812,0.1055,-0.5160,0.0322,0.0393
5704,-0.0068,-0.9814,0.1013,-0.5008,-0.0136,0.0851
5714,-0.0034,-0.9814,0.1001,-0.5008,-0.0747,0.1462
5724,-0.0027,-0.9792,0.1052,-0.5160,0.0475,0.2683
5734,-0.0024,-0.9778,0.1101,-0.5008,0.2154,0.2989
5744,-0.0042,-0.9756,0.1055,-0.3023,0.1696,0.3141
5754,-0.0032,-0.9773,0.1064,-0.4550,0.1849,0.1615
5764,-0.0027,-0.9805,0.1040,-0.5924,0.0933,0.1767
5774,-0.0088,-0.9827,0.1013,-0.5618,0.0933,0.1615
5784,-0.0017,-0.9812,0.1001,-0.3786,0.0169,0.0393
5794,-0.0098,-0.9797,0.1040,-0.3634,-0.0136,0.1462
5804,-0.0015,-0.9822,0.0996,-0.3939,-0.1052,0.2225
5814,-0.0051,-0.9802,0.0981,-0.4702,-0.0594,0.2531
5824,-0.0073,-0.9773,0.1150,-0.4092,-0.1205,0.2683
5834,-0.0063,-0.9836,0.1072,-0.4397,-0.1052,0.2989
5844,-0.0117,-0.9822,0.1013,-0.3786,-0.1510,0.3447
5854,-0.0095,-0.9785,0.1077,-0.3786,-0.3495,0.4210
5864,-0.0071,-0.9812,0.1045,-0.4702,-0.4258,0.3447
5874,-0.0049,-0.9800,0.1045,-0.4855,-0.4869,0.3141
5884,-0.0042,-0.9819,0.0999,-0.5924,-0.3037,0.2378
5894,-0.0044,-0.9773,0.1001,-0.6076,-0.2579,0.1004
5904,-0.0032,-0.9846,0.1003,-0.8366,-0.1357,0.0240
5914,-0.0090,-0.9834,0.1055,-0.7603,0.0322,-0.0218
5924,-0.0042,-0.9875,0.1050,-0.6687,0.1085,0.1004
5934,-0.0061,-0.9807,0.0952,-0.5924,0.2307,0.0546
5944,0.0027,-0.9797,0.0996,-0.4855,0.2460,0.0698
5954,0.0000,-0.9792,0.1013,-0.4550,0.3070,0.1462
5964,-0.0081,-0.9783,0.0967,-0.5160,0.2918,0.1767
5974,-0.0012,-0.9780,0.0967,-0.5618,0.2154,0.1615
5984,-0.0022,-0.9805,0.1008,-0.5008,0.0933,0.1615
5994,-0.0039,-0.9797,0.1045,-0.2870,0.0017,0.1920
6004,-0.0078,-0.9807,0.1035,-0.3023,0.0322,0.3141
6014,-0.0017,-0.9834,0.1064,-0.3481,-0.0136,0.2836
6024,-0.0068,-0.9800,0.1021,-0.5160,0.0475,0.3141
6034,-0.0066,-0.9773,0.1033,-0.4550,0.1391,0.2225
6044,-0.0020,-0.9775,0.1079,-0.4550,0.1544,0.1767
6054,-0.0076,-0.9866,0.0979,-0.5008,0.1238,0.1156
6064,-0.0090,-0.9807,0.1052,-0.6076,-0.0747,0.1615
6074,-0.0110,-0.9812,0.0984,-0.6534,-0.1968,0.1615
6084,-0.0059,-0.9797,0.1045,-0.7145,-0.3495,0.1462
6094,-0.0034,-0.9780,0.1018,-0.7145,-0.5174,0.2378
6104,-0.0046,-0.9802,0.1003,-0.6840,-0.5174,0.2378
6114,-0.0083,-0.9829,0.0989,-0.6229,-0.4563,0.0546
6124,-0.0059,-0.9812,0.1030,-0.5466,-0.4563,0.0546
6134,-0.0068,-0.9817,0.1008,-0.4397,-0.7464,0.2225
6144,-0.0046,-0.9790,0.1018,-0.4550,-0.9144,0.2378
6154,-0.0002,-0.9832,0.1021,-0.5160,-0.9449,0.2836
6164,0.0029,-0.9780,0.0979,-0.6229,-0.9144,0.1615
6174,0.0005,-0.9775,0.0967,-0.6076,-0.7311,0.2531
6184,-0.0054,-0.9802,0.1055,-0.4855,-0.5174,0.2531
6194,-0.0032,-0.9736,0.1035,-0.3939,-0.5174,0.3141
6204,-0.0042,-0.9790,0.1055,-0.4702,-0.3342,0.1920
6214,-0.0088,-0.9805,0.0994,-0.5313,-0.1357,0.2378
6224,-0.0063,-0.9810,0.1038,-0.5008,-0.0747,0.2225
6234,-0.0110,-0.9788,0.1091,-0.3939,-0.1052,0.2073
6244,-0.0093,-0.9829,0.0974,-0.4550,-0.1663,0.2836
6254,-0.0061,-0.9851,0.1023,-0.4244,-0.2273,0.3599
6264,-0.0100,-0.9727,0.1106,-0.3786,-0.2579,0.4515
6274,-0.0056,-0.9795,0.1047,-0.3939,-0.3189,0.4363
6284,-0.0042,-0.9824,0.1008,-0.4855,-0.1815,0.2836
6294,-0.0046,-0.9839,0.1028,-0.4702,0.0475,0.1156
6304,-0.0015,-0.9797,0.1057,-0.3176,0.0475,0.0393
6314,-0.0017,-0.9771,0.1042,-0.3481,0.1696,0.1462
6324,-0.0032,-0.9775,0.0994,-0.3634,0.2154,0.3447
6334,-0.0024,-0.9807,0.1016,-0.4702,0.1849,0.3447
6344,-0.0044,-0.9819,0.1008,-0.4244,0.2918,0.3599
6354,0.0022,-0.9783,0.1052,-0.3023,0.2765,0.3905
6364,-0.0063,-0.9827,0.0984,-0.4397,0.4292,0.4210
6374,-0.0044,-0.9851,0.0977,-0.3481,0.6124,0.3905
6384,-0.0078,-0.9846,0.1040,-0.2565,0.6734,0.3752
6394,-0.0100,-0.9800,0.1035,-0.2107,0.7498,0.3599
6404,-0.0059,-0.9800,0.0999,-0.2565,0.8108,0.2836
6414,-0.0083,-0.9807,0.1047,-0.3786,0.6887,0.1615
6424,-0.0076,-0.9827,0.1021,-0.3786,0.6276,0.0546
6434,-0.0090,-0.9766,0.1023,-0.4244,0.4750,0.0240
6444,-0.0073,-0.9807,0.1123,-0.5618,0.3834,0.0698
6454,-0.0078,-0.9790,0.1016,-0.6229,0.4444,-0.0676
6464,-0.0078,-0.9805,0.1069,-0.4244,0.3834,-0.0218
6474,-0.0027,-0.9771,0.1069,-0.3939,0.3528,-0.0218
6484,-0.0032,-0.9773,0.1003,-0.5008,0.3070,0.0546
6494,-0.0015,-0.9785,0.1074,-0.6840,0.3834,0.1309
6504,-0.0017,-0.9851,0.0999,-0.6229,0.3223,0.2073
6514,-0.0015,-0.9817,0.1038,-0.4092,0.2765,0.2836
6524,-0.0005,-0.9797,0.1023,-0.2412,0.4292,0.3294
6534,-0.0044,-0.9814,0.1023,-0.3328,0.3070,0.2683
6544,-0.0039,-0.9795,0.1047,-0.5008,0.2460,0.2378
6554,-0.0068,-0.9790,0.1008,-0.6534,0.1391,0.1920
6564,-0.0078,-0.9844,0.1038,-0.6076,0.0475,0.2531
6574,-0.0081,-0.9800,0.1025,-0.4550,0.0780,0.2225
6584,-0.0054,-0.9846,0.1052,-0.4244,0.0627,0.2989
6594,-0.0068,-0.9829,0.1006,-0.3176,0.0780,0.3294
6604,-0.0034,-0.9797,0.1016,-0.3023,0.1696,0.2836
6614,-0.0044,-0.9792,0.1077,-0.3176,0.0475,0.1767
6624,-0.0068,-0.9834,0.1016,-0.5160,0.2307,0.1615
6634,-0.0073,-0.9827,0.0967,-0.6382,0.2612,0.1309
6644,-0.0054,-0.9800,0.1018,-0.6076,0.2612,0.1462
6654,-0.0054,-0.9795,0.1018,-0.5313,0.3223,0.1156
6664,-0.0005,-0.9807,0.1047,-0.6229,0.4292,0.1004
6674,-0.0020,-0.9807,0.1016,-0.5924,0.5666,0.1462
6684,-0.0037,-0.9731,0.1006,-0.6229,0.4750,0.1615
6694,-0.0061,-0.9844,0.1057,-0.7145,0.6276,0.1767
6704,-0.0066,-0.9819,0.0969,-0.6382,0.7192,0.2531
6714,-0.0056,-0.9800,0.0996,-0.4550,0.7040,0.4057
6724,-0.0061,-0.9802,0.1028,-0.4397,0.6887,0.3599
6734,-0.0068,-0.9792,0.0999,-0.4397,0.6582,0.4515
6744,-0.0066,-0.9807,0.1006,-0.4550,0.5513,0.4210
6754,-0.0039,-0.9829,0.1057,-0.5008,0.5666,0.3294
6764,-0.0120,-0.9810,0.1003,-0.4702,0.4597,0.2683
6774,-0.0039,-0.9832,0.1023,-0.5313,0.5055,0.2531
6784,-0.0078,-0.9834,0.1011,-0.3786,0.4292,0.2683
6794,-0.0037,-0.9778,0.1033,-0.2107,0.4444,0.3447
6804,-0.0049,-0.9788,0.1038,-0.3328,0.5208,0.3905
6814,-0.0046,-0.9810,0.1013,-0.5008,0.4597,0.2225
6824,-0.0095,-0.9812,0.1006,-0.5008,0.3986,0.1767
6834,-0.0090,-0.9812,0.0996,-0.6229,0.3681,0.1309
6844,-0.0056,-0.9792,0.1096,-0.4855,0.3681,0.1004
6854,-0.0027,-0.9812,0.0989,-0.3786,0.3834,0.0088
6864,-0.0027,-0.9771,0.1052,-0.2718,0.3834,0.0698
6874,-0.0049,-0.9790,0.1016,-0.2412,0.3986,0.1767
6884,-0.0029,-0.9783,0.1030,-0.4244,0.3834,0.1462
6894,-0.0081,-0.9856,0.1038,-0.5008,0.3834,0.2836
6904,-0.0095,-0.9875,0.0959,-0.5313,0.4597,0.2378
6914,-0.0076,-0.9797,0.1016,-0.3328,0.4902,0.4057
6924,-0.0103,-0.9783,0.0999,-0.2412,0.4750,0.4363
6934,-0.0020,-0.9773,0.1040,-0.1954,0.5971,0.4668
6944,-0.0049,-0.9785,0.0984,-0.4397,0.7498,0.4821
6954,-0.0034,-0.9849,0.1055,-0.4855,0.7345,0.3447
6964,-0.0088,-0.9824,0.1033,-0.4397,0.5513,0.2989
6974,-0.0095,-0.9778,0.1045,-0.3786,0.4902,0.2225
6984,-0.0088,-0.9802,0.1055,-0.3634,0.4292,0.2683
6994,-0.0073,-0.9834,0.1074,-0.5771,0.3986,0.1920
7004,-0.0044,-0.9851,0.1038,-0.4244,0.3528,0.2989
7014,-0.0059,-0.9827,0.1050,-0.2718,0.2612,0.2683
7024,-0.0017,-0.9814,0.0991,-0.2718,0.2918,0.2073
7034,-0.0056,-0.9805,0.1050,-0.3328,0.3223,0.2378
7044,-0.0095,-0.9763,0.1023,-0.4855,0.3376,0.2073
7054,-0.0063,-0.9832,0.0996,-0.6076,0.3528,0.0546
7064,-0.0049,-0.9819,0.0974,-0.4855,0.2460,0.0851
7074,-0.0042,-0.9805,0.1033,-0.5008,0.1696,0.0546
7084,-0.0024,-0.9836,0.1003,-0.5771,0.1849,0.0393
7094,-0.0044,-0.9802,0.0967,-0.7756,0.2307,0.0088
7104,-0.0015,-0.9810,0.1016,-0.6687,0.3681,0.0546
7114,-0.0032,-0.9773,0.0999,-0.6229,0.4139,0.0546
7124,-0.0042,-0.9773,0.0955,-0.6229,0.5055,0.0851
7134,-0.0051,-0.9783,0.1001,-0.5008,0.4292,0.2683
7144,-0.0017,-0.9802,0.1038,-0.3481,0.2460,0.3599
7154,-0.0071,-0.9792,0.1016,-0.2412,0.2612,0.4057
7164,-0.0098,-0.9744,0.1055,-0.3328,0.0933,0.4668
7174,-0.0066,-0.9814,0.0999,-0.4244,0.0322,0.4210
7184,-0.0093,-0.9795,0.1038,-0.4397,-0.1357,0.2836
7194,-0.0059,-0.9802,0.1025,-0.4855,-0.2121,0.2683
7204,-0.0081,-0.9802,0.1006,-0.6687,-0.2426,0.3294
7214,-0.0078,-0.9792,0.1011,-0.7908,-0.3189,0.2683
7224,-0.0066,-0.9883,0.0986,-0.5924,-0.1663,0.3905
7234,-0.0044,-0.9844,0.1033,-0.3328,-0.1052,0.3599
7244,-0.0046,-0.9841,0.1006,-0.2718,0.0627,0.3599
7254,-0.0039,-0.9797,0.1006,-0.5924,0.4597,0.4668
7264,-0.0039,-0.9827,0.0942,-0.5924,0.5971,0.5279
7274,-0.0049,-0.9802,0.0940,-0.4397,0.7345,0.4363
7284,-0.0039,-0.9814,0.0952,-0.5313,0.6887,0.2836
7294,-0.0039,-0.9819,0.0950,-0.4702,0.7956,0.0851
7304,-0.0083,-0.9819,0.0969,-0.4397,0.7498,0.1920
7314,-0.0061,-0.9763,0.1030,-0.1649,0.5360,0.1920
7324,-0.0125,-0.9790,0.0938,-0.2718,0.3681,0.4057
7334,-0.0054,-0.9783,0.1079,-0.4397,0.3376,0.3752
7344,-0.0095,-0.9807,0.1016,-0.7908,0.4292,0.4210
7354,-0.0051,-0.9875,0.0996,-0.6076,0.4444,0.4210
7364,-0.0078,-0.9771,0.1089,-0.1802,0.2918,0.2989
7374,-0.0081,-0.9761,0.1052,-0.2107,0.3986,0.1462
7384,-0.0034,-0.9800,0.1023,-0.4550,0.3376,0.0851
7394,-0.0059,-0.9795,0.1047,-0.6992,0.4139,0.0393
7404,-0.0076,-0.9814,0.1011,-0.6840,0.3681,0.2683
7414,-0.0044,-0.9810,0.1030,-0.6992,0.3528,0.3447
7424,-0.0020,-0.9814,0.0964,-0.7450,0.4292,0.3599
7434,-0.0054,-0.9844,0.0967,-0.5618,0.3986,0.2989
7444,-0.0066,-0.9797,0.0981,-0.3939,0.3376,0.1309
7454,-0.0066,-0.9783,0.1003,-0.3176,0.2154,0.2683
7464,-0.0063,-0.9822,0.0962,-0.5160,0.3681,0.3752
7474,-0.0054,-0.9856,0.0940,-0.6534,0.3834,0.4821
7484,-0.0049,-0.9863,0.0947,-0.5008,0.4292,0.3447
7494,-0.0049,-0.9812,0.1018,-0.2107,0.2460,0.1767
7504,-0.0100,-0.9768,0.1030,-0.1802,0.1085,0.1920
7514,-0.0078,-0.9805,0.1016,-0.2107,0.1085,0.2073
7524,-0.0051,-0.9790,0.1008,-0.2718,0.0780,0.3141
7534,-0.0068,-0.9834,0.1064,-0.3023,0.1849,0.3447
7544,-0.0063,-0.9756,0.1062,-0.3023,0.2002,0.2378
7554,-0.0054,-0.9773,0.0989,-0.4244,0.4292,0.1920
7564,-0.0103,-0.9761,0.1052,-0.4397,0.3834,0.0088
7574,-0.0112,-0.9807,0.1050,-0.5771,0.3681,-0.1744
7584,-0.0071,-0.9805,0.1038,-0.6382,0.3986,-0.1744
7594,-0.0063,-0.9822,0.0986,-0.5160,0.3070,-0.0828
7604,-0.0056,-0.9824,0.0940,-0.4702,0.1849,0.0698
7614,-0.0037,-0.9763,0.0989,-0.8061,0.3223,0.2531
7624,-0.0054,-0.9731,0.0957,-1.0046,0.4750,0.3752
7634,-0.0015,-0.9773,0.1018,-0.6840,0.3528,0.4668
7644,-0.0020,-0.9819,0.0981,-0.6076,0.3681,0.2836
7654,-0.0068,-0.9846,0.0986,-0.3939,0.4139,0.4057
7664,-0.0083,-0.9817,0.1052,0.1710,0.3223,0.9553
7674,-0.0112,-0.9746,0.1040,0.1710,0.2765,1.3676
7684,-0.0095,-0.9751,0.1040,-0.1038,0.3070,1.1538
7694,-0.0105,-0.9851,0.1023,-0.0275,0.3681,0.3294
7704,-0.0037,-0.9775,0.1104,0.1099,-0.1815,0.2989
7714,-0.0117,-0.9797,0.1069,-0.3481,0.2002,0.3447
7724,-0.0078,-0.9788,0.1099,-0.3328,0.0780,0.1767
7734,-0.0049,-0.9814,0.1084,-0.4397,0.0475,0.0393
7744,-0.0098,-0.9819,0.1047,-0.5313,0.0475,0.1615
7754,-0.0081,-0.9751,0.1094,-0.4244,-0.0899,0.4363
7764,-0.0051,-0.9824,0.1033,-0.6229,0.2765,0.5889
7774,-0.0056,-0.9849,0.0957,-0.7450,0.5818,0.5126
7784,-0.0090,-0.9856,0.1023,-0.7145,0.6429,0.1004
7794,-0.0068,-0.9824,0.0903,-0.3786,0.4292,-0.3271
7804,-0.0027,-0.9812,0.1025,-0.3328,0.2612,-0.4492
7814,-0.0015,-0.9778,0.0994,-0.5008,0.2765,0.0088
7824,-0.0107,-0.9746,0.1040,-0.6687,0.2002,0.3294
7834,-0.0066,-0.9829,0.0981,-0.7603,0.2765,0.3447
7844,-0.0110,-0.9819,0.0977,-0.6992,0.4139,0.3599
7854,-0.0129,-0.9814,0.0989,-0.4092,0.2460,0.2378
7864,-0.0049,-0.9780,0.1082,-0.4702,0.2154,-0.0370
7874,-0.0032,-0.9773,0.0974,-0.6076,0.2765,-0.2050
7884,-0.0093,-0.9822,0.1025,-0.7145,0.2460,-0.1286
7894,-0.0059,-0.9741,0.1077,-0.8366,0.1696,-0.0218
7904,-0.0098,-0.9817,0.0984,-1.0656,0.4750,0.1156
7914,-0.0083,-0.9839,0.1001,-0.9130,0.5360,0.1462
7924,-0.0046,-0.9875,0.1006,-0.4550,0.6124,0.1156
7934,-0.0093,-0.9807,0.1064,-0.2260,0.5818,0.2225
7944,-0.0088,-0.9773,0.0986,-0.1649,0.4292,0.5279
7954,-0.0042,-0.9724,0.0967,-0.3939,0.1544,0.8332
7964,-0.0098,-0.9861,0.0959,-0.7450,0.0627,1.0011
7974,-0.0479,-0.9719,0.0864,-0.8519,-0.4105,0.9248
7984,-0.0029,-0.9885,0.0986,-1.0046,-4.5479,0.1767
7994,-0.0103,-0.9795,0.1121,-0.5466,-4.1205,-0.4034
8004,0.0027,-0.9812,0.1079,-0.8977,-3.9220,-0.3118
8014,-0.0032,-0.9763,0.1091,-0.6534,-2.9602,0.3447
8024,-0.0024,-0.9805,0.0977,-0.6382,-2.0594,0.5737
8034,-0.0046,-0.9751,0.0950,-0.3481,-1.3876,0.7569
8044,-0.0032,-0.9810,0.1062,-0.1954,-0.9754,0.7874
8054,-0.0088,-0.9824,0.0999,-0.3481,-0.6090,0.6805
8064,-0.0103,-0.9817,0.1028,-0.8672,-0.1663,0.8332
8074,-0.0090,-0.9812,0.0930,-0.9893,-0.0289,1.0317
8084,-0.0127,-0.9775,0.1021,-0.8672,-0.1205,1.0775
8094,-0.0129,-0.9805,0.0989,-0.8366,-0.7769,0.8332
8104,-0.0037,-0.9824,0.0989,-0.7298,-1.5556,0.5584
8114,-0.0042,-0.9753,0.0996,-0.7603,-1.1739,0.6347
8124,-0.0073,-0.9841,0.1021,-0.8214,-0.6243,0.6805
8134,-0.0120,-0.9812,0.1035,-0.4397,-0.1052,0.5279
8144,-0.0059,-0.9788,0.0984,-0.3481,0.2765,0.2378
8154,-0.0093,-0.9802,0.1028,-0.2565,0.3223,0.1156
8164,-0.0098,-0.9832,0.1013,-0.3634,0.2612,-0.0370
8174,-0.0110,-0.9841,0.1016,-0.5008,0.1849,-0.0828
8184,-0.0107,-0.9812,0.1052,-0.3481,0.0475,0.0851
8194,-0.0085,-0.9749,0.1057,-0.2260,0.1238,0.0698
8204,-0.0049,-0.9795,0.1035,-0.4397,0.3681,-0.0523
8214,-0.0063,-0.9775,0.1047,-0.7145,0.5055,-0.0218
8224,-0.0110,-0.9800,0.0962,-0.8519,0.7040,-0.0523
8234,-0.0088,-0.9824,0.0986,-0.6992,0.8108,-0.2050
8244,-0.0117,-0.9846,0.0967,-0.1038,0.7192,-0.3729
8254,-0.0090,-0.9795,0.0950,0.3847,0.6429,-0.5714
8264,-0.0071,-0.9832,0.1016,0.1099,0.4750,-0.4950
8274,-0.0122,-0.9783,0.1008,-0.4550,0.5360,-0.3729
8284,-0.0088,-0.9795,0.0959,-0.6687,0.3986,-0.4034
8294,-0.0046,-0.9792,0.1033,-0.6840,0.2002,-0.5408
8304,-0.0081,-0.9792,0.0947,-0.7145,0.1544,-0.4492
8314,-0.0098,-0.9795,0.1040,-0.8061,0.1238,-0.1744
8324,-0.0046,-0.9788,0.1033,-0.6687,0.1544,0.1462
8334,-0.0029,-0.9802,0.1028,-0.4092,0.1085,0.5584
8344,-0.0071,-0.9822,0.1013,-0.3634,0.3681,0.6500
8354,-0.0081,-0.9780,0.0974,-0.3634,0.4902,0.5279
8364,-0.0063,-0.9780,0.1025,-0.3023,0.2765,0.1004
8374,-0.0068,-0.9788,0.1038,-0.5008,0.2918,-0.0523
8384,-0.0107,-0.9795,0.1050,-0.7756,0.4597,0.1920
8394,-0.0078,-0.9817,0.0967,-0.8214,0.5513,0.4668
8404,-0.0093,-0.9839,0.0952,-0.6992,0.6429,0.4515
8414,-0.0078,-0.9812,0.0957,-0.3328,0.5055,0.2836
8424,-0.0056,-0.9797,0.0967,-0.0122,0.3223,0.1004
8434,-0.0034,-0.9805,0.1055,-0.0885,0.2307,-0.0218
8444,-0.0085,-0.9795,0.1001,-0.3786,0.2612,0.0698
8454,-0.0078,-0.9812,0.0964,-0.6534,0.2612,0.1462
8464,-0.0112,-0.9810,0.0994,-0.6076,0.2154,0.1615
8474,-0.0071,-0.9819,0.1013,-0.5313,0.1238,-0.2050
8484,-0.0056,-0.9802,0.1042,-0.4855,0.0169,-0.4645
8494,-0.0066,-0.9851,0.0989,-0.5008,0.1238,-0.3118
8504,-0.0034,-0.9766,0.1035,-0.2107,0.1238,-0.0370
8514,-0.0034,-0.9746,0.1003,-0.0733,0.1849,0.2073
8524,-0.0034,-0.9756,0.1045,-0.2412,0.3223,0.3294
8534,-0.0010,-0.9778,0.1021,-0.6992,0.5055,0.5279
8544,-0.0078,-0.9800,0.0947,-0.8366,0.5971,0.5279
8554,-0.0122,-0.9807,0.1016,-0.5618,0.3681,0.1767
8564,-0.0100,-0.9854,0.1062,-0.5466,0.4597,-0.2355
8574,-0.0046,-0.9807,0.0989,-0.5771,0.3528,-0.5103
8584,-0.0098,-0.9797,0.1023,-0.5924,0.2918,-0.3729
8594,-0.0076,-0.9785,0.0967,-0.5924,0.3528,-0.1286
8604,-0.0027,-0.9827,0.0999,-0.6534,0.3834,0.0088
8614,-0.0042,-0.9814,0.0979,-0.6840,0.4139,-0.0370
8624,-0.0073,-0.9851,0.0999,-0.7756,0.4444,-0.0981
8634,-0.0044,-0.9805,0.1060,-0.6687,0.4597,-0.1286
8644,-0.0059,-0.9751,0.0981,-0.5771,0.7803,-0.1286
8654,-0.0037,-0.9817,0.1025,-0.1802,0.7345,0.0393
8664,-0.0066,-0.9768,0.0959,-0.3786,0.5513,0.0698
8674,-0.0081,-0.9802,0.1033,-0.3481,0.3528,0.1309
8684,-0.0034,-0.9741,0.1038,-0.3023,0.1085,0.1615
8694,-0.0039,-0.9797,0.1030,-0.5313,0.2307,0.1767
8704,-0.0081,-0.9795,0.1025,-0.7450,0.2460,0.0546
8714,-0.0024,-0.9800,0.1018,-0.7145,0.2918,-0.0065
8724,-0.0032,-0.9841,0.0991,-0.4702,0.5055,0.2531
8734,-0.0081,-0.9785,0.0994,-0.1496,0.4597,0.5584
8744,-0.0076,-0.9766,0.0994,-0.1191,0.4292,0.5126
8754,-0.0095,-0.9741,0.1025,-0.3023,0.4597,0.3599
8764,-0.0144,-0.9805,0.1025,-0.5466,0.3070,0.1309
8774,-0.0105,-0.9807,0.1028,-0.6534,0.1849,0.1156
8784,-0.0115,-0.9858,0.0986,-0.7450,0.2307,-0.0981
8794,-0.0090,-0.9873,0.1016,-0.5618,0.3223,-0.1286
8804,-0.0073,-0.9836,0.1016,-0.5313,0.4597,0.0393
8814,-0.0012,-0.9797,0.0957,-0.3634,0.4597,0.0698
8824,0.0010,-0.9758,0.0967,-0.4397,0.6276,0.1004
8834,-0.0005,-0.9819,0.0996,-0.5008,0.7498,0.0851
8844,-0.0044,-0.9802,0.0964,-0.6076,1.9253,0.2073
8854,-0.0051,-0.9836,0.0938,-0.6840,1.7879,0.0088
8864,-0.0051,-0.9810,0.0972,-0.5160,1.2841,-0.0981
8874,-0.0034,-0.9802,0.1064,-0.4397,0.9330,0.0088
8884,-0.0051,-0.9758,0.0962,-0.5466,0.8719,0.1920
8894,-0.0007,-0.9834,0.0972,-0.5771,0.9024,0.1309
8904,-0.0063,-0.9807,0.1003,-0.4702,0.8261,0.1920
8914,-0.0020,-0.9834,0.1011,-0.1802,0.6124,0.3141
8924,-0.0093,-0.9805,0.1096,-0.1191,0.4444,0.2378
8934,-0.0063,-0.9800,0.0969,-0.1649,0.4902,0.3599
8944,-0.0078,-0.9810,0.1003,-0.1191,0.3834,0.4668
8954,-0.0100,-0.9778,0.1023,-0.4092,0.5208,0.4973
8964,-0.0095,-0.9756,0.0959,-0.4702,0.4902,0.4515
8974,-0.0010,-0.9795,0.1006,-0.5008,0.4292,0.3447
8984,-0.0073,-0.9834,0.1038,-0.4855,0.3986,0.2073
8994,-0.0076,-0.9810,0.0977,-0.4397,0.2307,0.1767
9004,-0.0098,-0.9814,0.1057,-0.5160,0.3528,0.1462
9014,-0.0017,-0.9844,0.0994,-0.5008,0.3376,0.2683
9024,-0.0066,-0.9819,0.0986,-0.5008,0.3070,0.2378
9034,-0.0029,-0.9788,0.0989,-0.4397,0.2612,0.1309
9044,-0.0022,-0.9805,0.1028,-0.4397,0.2918,0.3141
9054,-0.0051,-0.9819,0.0989,-0.3481,0.3986,0.2073
9064,-0.0073,-0.9819,0.1006,-0.2412,0.3681,0.2378
9074,-0.0042,-0.9822,0.0974,-0.2412,0.3834,0.3141
9084,-0.0059,-0.9800,0.1001,-0.3939,0.5055,0.2989
9094,-0.0068,-0.9812,0.1008,-0.3634,0.4292,0.3752
9104,-0.0083,-0.9812,0.0964,-0.3634,0.4292,0.4210
9114,-0.0093,-0.9763,0.0986,-0.2718,0.3223,0.4363
9124,-0.0090,-0.9802,0.1003,-0.3786,0.2612,0.2989
9134,-0.0061,-0.9832,0.1057,-0.4092,0.2612,0.2989
9144,-0.0054,-0.9771,0.0989,-0.3176,0.2002,0.5431
9154,-0.0063,-0.9771,0.1028,-0.2412,0.2612,0.5126
9164,-0.0081,-0.9817,0.1060,-0.2718,0.2765,0.4515
9174,-0.0056,-0.9800,0.1023,-0.4702,0.3528,0.2683
9184,-0.0100,-0.9834,0.0994,-0.6229,0.3223,0.0546
9194,-0.0059,-0.9822,0.1025,-0.5313,0.2002,0.0240
9204,-0.0088,-0.9814,0.0959,-0.4244,0.2612,-0.0676
9214,-0.0061,-0.9844,0.0969,-0.5313,0.2460,0.1004
9224,-0.0039,-0.9817,0.0916,-0.5008,0.2307,0.2225
9234,-0.0037,-0.9839,0.0977,-0.4550,0.2918,0.3294
9244,-0.0066,-0.9819,0.1013,-0.3328,0.1849,0.4363
9254,-0.0071,-0.9795,0.1016,-0.3481,0.2765,0.4363
9264,-0.0046,-0.9756,0.1042,-0.3634,0.2307,0.3905
9274,-0.0046,-0.9780,0.1018,-0.4244,0.2307,0.3294
9284,-0.0093,-0.9868,0.1118,-0.4855,0.2612,0.1462
9294,-0.0088,-0.9863,0.1035,-0.4244,0.3376,0.1004
9304,-0.0076,-0.9807,0.0989,-0.3481,0.3681,0.1156
9314,-0.0032,-0.9800,0.1018,-0.2260,0.3986,0.1767
9324,-0.0039,-0.9780,0.0999,-0.3176,0.3070,0.2989
9334,-0.0032,-0.9807,0.1067,-0.5313,0.3986,0.2225
9344,-0.0110,-0.9868,0.1016,-0.6076,0.3528,0.1920
9354,-0.0078,-0.9834,0.0972,-0.5618,0.2460,0.2225
9364,-0.0100,-0.9817,0.0935,-0.5160,0.3070,0.2073
9374,-0.0090,-0.9836,0.1055,-0.4702,0.3070,0.1615
9384,-0.0037,-0.9788,0.0986,-0.4397,0.3528,0.2683
9394,-0.0083,-0.9785,0.0967,-0.2870,0.3834,0.3599
9404,-0.0059,-0.9783,0.0981,-0.3939,0.4444,0.3447
9414,-0.0071,-0.9805,0.1021,-0.5313,0.4139,0.0698
9424,-0.0068,-0.9827,0.1008,-0.5160,0.3376,-0.0828
9434,-0.0063,-0.9839,0.1028,-0.5160,0.2765,-0.1439
9444,-0.0078,-0.9807,0.1055,-0.4244,0.2612,0.0088
9454,-0.0046,-0.9753,0.1055,-0.4092,0.2307,0.2378
9464,-0.0056,-0.9856,0.1047,-0.4855,0.3223,0.2378
9474,-0.0046,-0.9758,0.1016,-0.4244,0.3834,0.3752
9484,-0.0081,-0.9812,0.0964,-0.3786,0.6887,0.5279
9494,-0.0110,-0.9744,0.1013,-0.3939,0.4139,0.4668
9504,-0.0039,-0.9805,0.1042,-0.4702,0.2765,-0.0828
9514,-0.0115,-0.9871,0.1018,-0.5924,0.2154,0.1004
9524,-0.0063,-0.9800,0.1018,-0.5160,0.3223,0.1615
9534,-0.0078,-0.9844,0.1052,-0.4397,0.3376,0.1767
9544,-0.0100,-0.9817,0.0981,-0.3939,0.2918,0.1920
9554,-0.0054,-0.9775,0.0974,-0.4550,0.1544,-0.0676
9564,-0.0051,-0.9795,0.0955,-0.6534,0.1085,-0.1439
9574,-0.0085,-0.9783,0.0947,-0.6992,0.1544,-0.0676
9584,-0.0071,-0.9773,0.0986,-0.5466,0.2154,-0.0523
9594,-0.0037,-0.9832,0.1011,-0.5618,0.1544,-0.0065
9604,-0.0081,-0.9849,0.1033,-0.5008,0.2154,-0.0370
9614,-0.0034,-0.9829,0.1028,-0.4244,0.2460,0.1004
9624,-0.0068,-0.9824,0.1001,-0.4550,0.2612,0.1309
9634,-0.0039,-0.9756,0.1047,-0.4092,0.2612,0.2378
9644,-0.0042,-0.9780,0.0996,-0.5313,0.2460,0.1920
9654,-0.0044,-0.9858,0.0952,-0.5924,0.2154,0.1156
9664,-0.0071,-0.9841,0.1045,-0.5924,0.2154,-0.0676
9674,-0.0073,-0.9817,0.1045,-0.4550,0.3070,0.0546
9684,-0.0073,-0.9805,0.0996,-0.3481,0.3376,0.3294
9694,-0.0059,-0.9829,0.1006,-0.4702,0.4139,0.3599
9704,-0.0071,-0.9849,0.0996,-0.5160,0.4597,0.2989
9714,-0.0078,-0.9814,0.0984,-0.5924,0.4292,0.2073
9724,-0.0054,-0.9846,0.1011,-0.5160,0.3528,0.0240
9734,-0.0054,-0.9817,0.1030,-0.3634,0.2307,-0.0218
9744,-0.0076,-0.9768,0.1006,-0.4397,0.3681,0.0698
9754,-0.0002,-0.9802,0.1008,-0.3786,0.3528,0.2225
9764,-0.0032,-0.9771,0.1033,-0.4244,0.4597,0.3599
9774,-0.0046,-0.9810,0.0962,-0.3939,0.4597,0.2531
9784,-0.0073,-0.9827,0.0996,-0.3023,0.3681,0.1309
9794,-0.0068,-0.9805,0.1067,-0.2412,0.2307,0.1156
9804,-0.0122,-0.9805,0.1050,-0.3481,0.1696,0.0851
9814,-0.0095,-0.9790,0.1064,-0.4397,0.0627,0.2683
9824,-0.0071,-0.9819,0.1028,-0.5008,0.1849,0.4821
9834,-0.0039,-0.9824,0.1057,-0.4092,0.3070,0.6347
9844,-0.0063,-0.9810,0.1025,-0.4702,0.3376,0.6042
9854,-0.0073,-0.9819,0.1047,-0.4550,0.2918,0.4363
9864,-0.0093,-0.9812,0.1042,-0.4550,0.2918,0.1767
9874,-0.0078,-0.9778,0.0979,-0.5771,0.2612,0.1156
9884,-0.0078,-0.9805,0.0974,-0.4702,0.1544,0.0851
9894,-0.0098,-0.9783,0.0942,-0.3481,0.2002,0.2378
9904,-0.0044,-0.9805,0.0974,-0.4092,0.0475,0.0851
9914,-0.0066,-0.9810,0.0967,-0.5313,0.0169,0.0546
9924,-0.0005,-0.9817,0.1021,-0.6382,0.0627,-0.0523
9934,-0.0015,-0.9824,0.0967,-0.6534,0.2765,-0.0218
9944,-0.0024,-0.9814,0.1018,-0.3634,0.2765,0.1767
9954,-0.0049,-0.9795,0.0903,-0.1802,0.5208,0.3294
9964,-0.0042,-0.9795,0.1055,-0.0122,0.5513,0.4210
9974,-0.0081,-0.9788,0.1038,-0.1802,0.5818,0.4973
9984,-0.0081,-0.9839,0.0947,-0.3176,0.5666,0.6805
9994,-0.0054,-0.9792,0.1028,-0.4092,0.4292,0.6805
10004,-0.0049,-0.9812,0.0962,-0.3786,0.2612,0.5889
10014,-0.0081,-0.9824,0.1013,-0.2565,0.2154,0.4668
10024,-0.0093,-0.9812,0.1042,-0.2107,0.2765,0.4515
10034,-0.0093,-0.9805,0.1055,-0.2718,0.2918,0.5584
10044,-0.0103,-0.9812,0.1050,-0.4092,0.4139,0.5431
10054,-0.0090,-0.9797,0.0967,-0.4702,0.3834,0.4057
10064,-0.0098,-0.9863,0.1111,-0.5313,0.2460,0.1615
10074,-0.0071,-0.9834,0.1033,-0.6992,0.2307,0.0240
10084,-0.0129,-0.9810,0.1052,-0.5771,0.2765,-0.1592
10094,-0.0066,-0.9814,0.0986,-0.5313,0.2002,-0.2660
10104,-0.0068,-0.9832,0.1008,-0.5160,0.1238,-0.2355
10114,-0.0010,-0.9824,0.0979,-0.4397,0.2765,-0.2355
10124,-0.0039,-0.9814,0.0977,-0.3481,0.2002,-0.1286
10134,-0.0044,-0.9802,0.1028,-0.3481,0.2307,0.2073
10144,-0.0093,-0.9814,0.0999,-0.5618,0.4444,0.4057
10154,-0.0042,-0.9836,0.0994,-0.5160,0.4139,0.3447
10164,-0.0078,-0.9839,0.0959,-0.5008,0.3681,0.1920
10174,-0.0061,-0.9795,0.1052,-0.3176,0.2765,0.0698
10184,-0.0071,-0.9771,0.1062,-0.1649,0.2154,0.1309
10194,-0.0032,-0.9771,0.1057,-0.1496,0.2765,0.2073
10204,-0.0061,-0.9805,0.1016,-0.4244,0.3681,0.3447
10214,-0.0010,-0.9814,0.1003,-0.4702,0.4139,0.2378
10224,-0.0081,-0.9802,0.1060,-0.5618,0.4750,0.1920
10234,-0.0056,-0.9788,0.0974,-0.3939,0.4597,0.1004
10244,-0.0066,-0.9780,0.1013,-0.2412,0.4902,0.1004
10254,-0.0105,-0.9832,0.0979,-0.3481,0.4139,0.2073
10264,-0.0098,-0.9792,0.0999,-0.3328,0.2612,0.2073
10274,-0.0078,-0.9812,0.1001,-0.5313,0.3376,0.1920
10284,-0.0034,-0.9844,0.0952,-0.4702,0.3528,0.3905
10294,-0.0056,-0.9839,0.1028,-0.6076,0.4292,0.2683
10304,-0.0051,-0.9832,0.0959,-0.6534,0.3528,0.1004
10314,-0.0051,-0.9817,0.0952,-0.4397,0.3834,-0.0981
10324,-0.0066,-0.9829,0.0986,-0.3634,0.3528,-0.0676
10334,-0.0051,-0.9844,0.1074,-0.2565,0.3528,0.1004
10344,-0.0056,-0.9812,0.0989,-0.3176,0.2612,0.2378
10354,-0.0085,-0.9817,0.1035,-0.4397,0.3070,0.1156
10364,-0.0090,-0.9790,0.1035,-0.4244,0.2002,0.0546
10374,-0.0059,-0.9822,0.1045,-0.3939,0.1238,-0.0676
10384,-0.0049,-0.9766,0.0962,-0.5924,0.2154,-0.0828
10394,-0.0044,-0.9844,0.0999,-0.5313,0.3376,0.0851
10404,-0.0098,-0.9795,0.1052,-0.3481,0.2460,0.1767
10414,-0.0063,-0.9797,0.0977,-0.2260,0.3223,0.2225
10424,-0.0071,-0.9807,0.0994,-0.3939,0.3834,0.3447
10434,-0.0061,-0.9849,0.0991,-0.4244,0.3223,0.2531
10444,-0.0098,-0.9790,0.1011,-0.4092,0.2460,0.1156
10454,-0.0051,-0.9810,0.1016,-0.4550,0.1696,-0.0828
10464,-0.0032,-0.9814,0.0977,-0.3939,0.0780,-0.0523
10474,-0.0051,-0.9810,0.0986,-0.5313,0.0322,-0.0065
10484,-0.0056,-0.9805,0.1021,-0.6534,0.1544,-0.0218
10494,-0.0044,-0.9836,0.1016,-0.5160,0.1238,0.0546
10504,-0.0002,-0.9832,0.1050,-0.4092,0.0933,0.1309
10514,-0.0051,-0.9829,0.1045,-0.4702,0.2918,0.0698
10524,-0.0063,-0.9810,0.1074,-0.3481,0.3223,0.0240
10534,-0.0090,-0.9783,0.1003,-0.4397,0.3986,0.1309
10544,-0.0076,-0.9773,0.1050,-0.5313,0.5666,0.1156
10554,-0.0083,-0.9778,0.0986,-0.5618,0.5513,0.2073
10564,-0.0046,-0.9800,0.1033,-0.5618,0.4750,0.2836
10574,-0.0105,-0.9827,0.0981,-0.5160,0.4292,0.2683
10584,-0.0090,-0.9824,0.1042,-0.5618,0.3834,0.1767
10594,-0.0066,-0.9846,0.1082,-0.6840,0.3528,-0.0676
10604,-0.0117,-0.9810,0.1052,-0.8214,0.4139,-0.3118
10614,-0.0151,-0.9817,0.1082,-0.7756,0.4444,-0.4798
10624,-0.0081,-0.9775,0.1003,-0.5618,0.3223,-0.2813
10634,-0.0027,-0.9756,0.1091,-0.5313,0.1696,-0.1286
10644,-0.0105,-0.9788,0.1042,-0.7756,0.1696,0.0393
10654,-0.0051,-0.9812,0.1003,-0.8061,0.2154,0.1156
10664,-0.0020,-0.9822,0.1028,-0.5466,0.2460,0.1462
10674,-0.0039,-0.9822,0.1003,-0.3786,0.3528,0.2989
10684,-0.0005,-0.9841,0.0979,-0.3481,0.3834,0.3905
10694,-0.0049,-0.9768,0.1074,-0.3023,0.3986,0.4210
10704,-0.0068,-0.9812,0.0986,-0.2718,0.3681,0.5126
10714,-0.0066,-0.9792,0.1023,-0.3634,0.3223,0.5431
10724,-0.0066,-0.9819,0.0969,-0.5313,0.3528,0.4363
10734,-0.0115,-0.9768,0.0969,-0.5160,0.3223,0.4515
10744,-0.0046,-0.9807,0.1084,-0.5466,0.1696,0.3752
10754,-0.0088,-0.9812,0.1021,-0.5160,0.3070,0.4057
10764,-0.0100,-0.9841,0.0991,-0.4702,0.1849,0.3599
10774,-0.0110,-0.9810,0.1028,-0.5008,0.1391,0.2989
10784,-0.0095,-0.9829,0.1016,-0.5008,0.2307,0.1767
10794,-0.0049,-0.9775,0.1055,-0.4702,0.2612,0.2683
10804,-0.0056,-0.9802,0.1011,-0.5466,0.1849,0.1920
10814,-0.0034,-0.9792,0.1064,-0.5618,0.2460,0.1767
10824,-0.0049,-0.9807,0.1021,-0.6382,0.1696,0.0546
10834,-0.0029,-0.9785,0.1008,-0.5924,0.1696,-0.0065
10844,-0.0005,-0.9827,0.1018,-0.4855,0.2612,0.0851
10854,-0.0017,-0.9805,0.0989,-0.3786,0.3223,0.2073
10864,-0.0027,-0.9734,0.1042,-0.2870,0.3223,0.2989
10874,-0.0046,-0.9792,0.0986,-0.4244,0.3528,0.2225
10884,-0.0034,-0.9802,0.0984,-0.4702,0.3223,0.2378
10894,-0.0039,-0.9868,0.0996,-0.5160,0.3681,0.2073
10904,-0.0095,-0.9802,0.0989,-0.4092,0.3681,0.2378
10914,-0.0076,-0.9756,0.0959,-0.4244,0.4292,0.3447
10924,-0.0029,-0.9775,0.1018,-0.2718,0.3834,0.4515
10934,-0.0034,-0.9792,0.1023,-0.2107,0.3376,0.4973
10944,-0.0056,-0.9800,0.1025,-0.3481,0.3528,0.5126
10954,-0.0073,-0.9817,0.1018,-0.2107,0.3986,0.5126
10964,-0.0112,-0.9822,0.1033,-0.2718,0.4902,0.2989
10974,-0.0095,-0.9805,0.1013,-0.2870,0.3681,0.1767
10984,-0.0076,-0.9819,0.1008,-0.3939,0.2765,0.0851
10994,-0.0010,-0.9792,0.1013,-0.5313,0.3223,0.1004
11004,-0.0017,-0.9800,0.0967,-0.4397,0.2460,0.1920
11014,-0.0054,-0.9795,0.1021,-0.3481,0.1849,0.1462
11024,-0.0032,-0.9763,0.1023,-0.3786,0.1696,0.1156
11034,-0.0022,-0.9817,0.1013,-0.5313,0.1696,0.0088
11044,-0.0068,-0.9829,0.0986,-0.5160,0.0780,0.0698
11054,-0.0066,-0.9824,0.1008,-0.4550,0.2154,0.1309
11064,-0.0042,-0.9822,0.1011,-0.4702,0.2307,0.1920
11074,-0.0081,-0.9836,0.0969,-0.5008,0.2307,0.1615
11084,-0.0039,-0.9849,0.0977,-0.5160,0.2460,0.1615
11094,-0.0085,-0.9792,0.1016,-0.3481,0.3834,0.2225
11104,-0.0076,-0.9822,0.0977,-0.2718,0.5208,0.3599
11114,-0.0034,-0.9819,0.1057,-0.3023,0.4750,0.2683
11124,-0.0071,-0.9790,0.0996,-0.3634,0.5666,0.2531
11134,-0.0107,-0.9822,0.1062,-0.4855,0.6734,0.2073
11144,-0.0083,-0.9819,0.1050,-0.4244,0.5208,0.2683
11154,-0.0039,-0.9792,0.1006,-0.4550,0.4902,0.2225
11164,-0.0063,-0.9775,0.1047,-0.4244,0.4750,0.0851
11174,-0.0061,-0.9761,0.1055,-0.3328,0.2918,0.0698
11184,-0.0042,-0.9788,0.1045,-0.5008,0.3681,0.1615
11194,-0.0054,-0.9841,0.1045,-0.4244,0.3528,0.0546
11204,-0.0098,-0.9814,0.0974,-0.3939,0.3834,0.1767
11214,-0.0073,-0.9841,0.1047,-0.4397,0.3223,0.1615
11224,-0.0039,-0.9805,0.1028,-0.5008,0.3376,0.1156
11234,-0.0049,-0.9792,0.1028,-0.5771,0.3376,0.0393
11244,-0.0059,-0.9829,0.1011,-0.6076,0.2612,0.1156
11254,-0.0042,-0.9834,0.0979,-0.5771,0.2765,0.2378
11264,-0.0063,-0.9822,0.1021,-0.3786,0.3070,0.3141
11274,-0.0037,-0.9739,0.1003,-0.3634,0.3223,0.4057
11284,-0.0049,-0.9766,0.0996,-0.3634,0.4597,0.4363
11294,-0.0005,-0.9824,0.1025,-0.5924,0.3986,0.3294
11304,-0.0098,-0.9802,0.0986,-0.5160,0.3223,0.2225
11314,-0.0051,-0.9812,0.0977,-0.4702,0.2154,0.0698
11324,-0.0095,-0.9810,0.1055,-0.5313,0.1849,0.0851
11334,-0.0095,-0.9814,0.1008,-0.4702,0.1544,0.1615
11344,-0.0093,-0.9829,0.1001,-0.4092,0.1391,0.2378
11354,-0.0037,-0.9771,0.0994,-0.4092,0.2307,0.1004
11364,-0.0024,-0.9768,0.1033,-0.4550,0.2307,0.0546
11374,-0.0046,-0.9792,0.0986,-0.5924,0.3528,0.1615
11384,-0.0029,-0.9822,0.1042,-0.6687,0.3376,0.1615
11394,-0.0066,-0.9788,0.0967,-0.5924,0.3376,0.1767
11404,-0.0081,-0.9819,0.1021,-0.4855,0.1696,0.2378
11414,-0.0056,-0.9797,0.1030,-0.4702,0.2765,0.1615
11424,-0.0078,-0.9817,0.1018,-0.4702,0.1849,0.2073
11434,-0.0068,-0.9795,0.1016,-0.4855,0.1085,0.1615
11444,-0.0042,-0.9839,0.0996,-0.5313,0.1696,0.0546
11454,-0.0017,-0.9792,0.0952,-0.5160,0.2307,0.0393
11464,-0.0039,-0.9792,0.1040,-0.4550,0.3070,0.2225
11474,-0.0044,-0.9790,0.0957,-0.3786,0.3528,0.2073
11484,-0.0095,-0.9771,0.1001,-0.5008,0.3986,0.3294
11494,-0.0034,-0.9866,0.1045,-0.5313,0.4444,0.2378
11504,-0.0081,-0.9795,0.1006,-0.4397,0.4597,0.2073
11514,-0.0073,-0.9771,0.1089,-0.2718,0.2918,0.2073
11524,-0.0066,-0.9810,0.1025,-0.3481,0.5666,0.2531
11534,-0.0044,-0.9832,0.1016,-0.4702,0.5360,0.1615
11544,-0.0051,-0.9807,0.1023,-0.5618,0.4597,0.1920
11554,-0.0034,-0.9827,0.1101,-0.6076,0.4750,0.1309
11564,-0.0076,-0.9800,0.1067,-0.5771,0.5055,0.2989
11574,-0.0032,-0.9851,0.1003,-0.6382,0.6429,0.2836
11584,-0.0068,-0.9814,0.0969,-0.5466,0.6582,0.3294
11594,-0.0051,-0.9817,0.0938,-0.3481,0.4444,0.2683
11604,-0.0037,-0.9807,0.0959,-0.3786,0.3681,0.2989
11614,-0.0037,-0.9785,0.0981,-0.4702,0.4292,0.2531
11624,-0.0059,-0.9805,0.0962,-0.5924,0.3681,0.2531
11634,-0.0063,-0.9795,0.1016,-0.5160,0.2154,0.2683
11644,-0.0056,-0.9851,0.1003,-0.5466,0.1849,0.0851
11654,-0.0051,-0.9841,0.1013,-0.4397,0.2765,0.0240
11664,-0.0044,-0.9805,0.1016,-0.2412,0.2612,0.2225
11674,-0.0024,-0.9758,0.1062,-0.1649,0.3986,0.3141
11684,-0.0034,-0.9753,0.1025,-0.3023,0.3834,0.4821
11694,-0.0054,-0.9814,0.1033,-0.3786,0.3223,0.4210
11704,-0.0039,-0.9792,0.1008,-0.5618,0.2918,0.2836
11714,-0.0081,-0.9788,0.1067,-0.4855,0.1544,0.1309
11724,-0.0073,-0.9841,0.1074,-0.4397,-0.0136,-0.0370
11734,-0.0083,-0.9827,0.1033,-0.5008,-0.1357,-0.1439
11744,-0.0098,-0.9810,0.0989,-0.4702,-0.2121,-0.2202
11754,-0.0083,-0.9834,0.1018,-0.4244,-0.3800,-0.2355
11764,-0.0039,-0.9778,0.1038,-0.6229,-0.3495,-0.2202
11774,-0.0042,-0.9810,0.0994,-0.6687,-0.2426,-0.1439
11784,-0.0027,-0.9832,0.0999,-0.6992,-0.1357,0.0088
11794,-0.0032,-0.9817,0.0991,-0.5160,-0.0594,0.1920
11804,0.0015,-0.9780,0.0950,-0.4397,0.0627,0.3141
11814,-0.0032,-0.9795,0.1001,-0.3176,0.2918,0.5126
11824,0.0022,-0.9814,0.0969,-0.3634,0.4292,0.5431
11834,0.0012,-0.9832,0.0957,-0.3176,0.5055,0.5279
11844,-0.0007,-0.9763,0.0955,-0.1649,0.5666,0.5737
11854,-0.0007,-0.9763,0.1008,-0.1649,0.4902,0.4973
11864,-0.0098,-0.9832,0.1003,-0.3023,0.4902,0.4821
11874,-0.0093,-0.9839,0.0962,-0.4244,0.4139,0.4210
11884,-0.0098,-0.9829,0.1016,-0.4855,0.3223,0.1156
11894,-0.0159,-0.9851,0.0972,-0.5008,0.3223,0.2225
11904,-0.0139,-0.9834,0.1025,-0.3634,0.3834,0.1767
11914,-0.0105,-0.9858,0.1091,-0.3939,0.3681,0.0088
11924,-0.0115,-0.9766,0.1094,-0.4855,0.2612,-0.1897
11934,-0.0051,-0.9812,0.0977,-0.5924,0.3986,-0.3576
11944,-0.0046,-0.9849,0.1072,-0.4855,0.4750,-0.4340
11954,-0.0042,-0.9775,0.1033,-0.4244,0.5818,-0.3118
11964,-0.0012,-0.9795,0.1040,-0.4397,0.5360,-0.3118
11974,0.0000,-0.9778,0.1003,-0.3634,0.5513,-0.1592
11984,-0.0027,-0.9753,0.0986,-0.3481,0.4444,-0.0370
11994,0.0020,-0.9814,0.0977,-0.3939,0.3376,0.1156
12004,-0.0015,-0.9778,0.1064,-0.4550,0.3070,0.2683
12014,-0.0015,-0.9824,0.1018,-0.3786,0.2154,0.2989
12024,-0.0044,-0.9800,0.1025,-0.3328,0.3070,0.4973
12034,-0.0054,-0.9795,0.0979,-0.2870,0.3834,0.5889
12044,0.0007,-0.9858,0.1001,-0.3176,0.4444,0.6500
12054,-0.0093,-0.9871,0.1018,-0.2718,0.4444,0.7569
12064,-0.0107,-0.9807,0.1035,-0.2718,0.3986,0.6653
12074,-0.0085,-0.9807,0.1042,-0.3176,0.3223,0.6195
12084,-0.0159,-0.9758,0.0994,-0.2870,0.3070,0.4363
12094,-0.0156,-0.9810,0.0959,-0.5008,0.3376,0.1920
12104,-0.0134,-0.9839,0.1025,-0.6534,0.3070,0.1462
12114,-0.0103,-0.9807,0.1016,-0.6076,0.2612,-0.0065
12124,-0.0090,-0.9731,0.1011,-0.5924,0.1849,-0.1286
12134,-0.0068,-0.9810,0.0940,-0.6534,0.2918,-0.0218
12144,0.0007,-0.9768,0.0981,-0.6687,0.2918,0.0240
12154,0.0020,-0.9805,0.0996,-0.6840,0.2765,0.0088
12164,0.0007,-0.9832,0.0989,-0.5466,0.4139,0.1004
12174,0.0022,-0.9824,0.1038,-0.3786,0.4292,0.2531
12184,-0.0034,-0.9773,0.1047,-0.4092,0.4292,0.3141
12194,-0.0027,-0.9778,0.0999,-0.5160,0.4292,0.1767
12204,-0.0024,-0.9792,0.1038,-0.5771,0.4597,0.1615
12214,-0.0039,-0.9863,0.0923,-0.5160,0.4902,0.3141
12224,-0.0066,-0.9861,0.0918,-0.4397,0.4750,0.3599
12234,-0.0098,-0.9844,0.0989,-0.2260,0.4750,0.3599
12244,-0.0159,-0.9797,0.0986,-0.1802,0.4750,0.3599
12254,-0.0129,-0.9834,0.1047,-0.3023,0.3223,0.3447
12264,-0.0146,-0.9861,0.1052,-0.3786,0.3681,0.2225
12274,-0.0173,-0.9832,0.1050,-0.3786,0.3070,0.1615
12284,-0.0093,-0.9810,0.1018,-0.3176,0.1849,-0.0523
12294,-0.0110,-0.9795,0.1018,-0.4702,0.0627,-0.1897
12304,-0.0034,-0.9812,0.1091,-0.5924,0.0017,-0.2202
12314,-0.0039,-0.9756,0.1040,-0.6229,-0.0594,-0.1592
12324,0.0002,-0.9778,0.1013,-0.5160,-0.1357,-0.2355
12334,-0.0015,-0.9771,0.1023,-0.4702,-0.1815,-0.2355
12344,0.0017,-0.9756,0.1003,-0.5771,-0.1205,-0.1286
12354,0.0007,-0.9771,0.1018,-0.7450,-0.0899,0.0698
12364,-0.0007,-0.9766,0.1035,-0.6840,0.0322,0.3294
12374,-0.0007,-0.9800,0.1006,-0.6229,0.0627,0.4210
12384,-0.0032,-0.9819,0.0979,-0.5466,0.0475,0.4821
12394,-0.0044,-0.9805,0.0981,-0.5466,0.0475,0.3599
12404,-0.0085,-0.9854,0.0928,-0.7145,0.1391,0.3752
12414,-0.0085,-0.9829,0.0940,-0.4855,0.1085,0.5431
12424,-0.0068,-0.9827,0.0964,-0.1954,0.0475,0.5889
12434,-0.0093,-0.9778,0.1003,-0.3634,0.1544,0.5889
12444,-0.0098,-0.9858,0.1038,-0.5313,0.3070,0.5126
12454,-0.0095,-0.9819,0.1021,-0.5466,0.3681,0.4363
12464,-0.0100,-0.9819,0.0999,-0.4855,0.3223,0.3599
12474,-0.0112,-0.9827,0.1040,-0.4702,0.2765,0.1462
12484,-0.0115,-0.9788,0.1035,-0.4702,0.3223,-0.0218
12494,-0.0027,-0.9851,0.1023,-0.5313,0.2918,0.1004
12504,0.0015,-0.9788,0.1003,-0.5313,0.3986,0.0851
12514,-0.0017,-0.9807,0.0999,-0.5008,0.5055,0.0240
12524,0.0032,-0.9795,0.1011,-0.4550,0.5360,0.0698
12534,-0.0046,-0.9766,0.0986,-0.5313,0.6276,0.1004
12544,-0.0020,-0.9800,0.1003,-0.4702,0.6429,0.1004
12554,-0.0034,-0.9800,0.0994,-0.3328,0.6429,0.2531
12564,-0.0066,-0.9832,0.1064,-0.2870,0.5666,0.3141
12574,-0.0100,-0.9814,0.0935,-0.2107,0.4597,0.2683
12584,-0.0071,-0.9778,0.1033,-0.1038,0.4597,0.4515
12594,-0.0088,-0.9819,0.0994,-0.0580,0.4444,0.5584
12604,-0.0078,-0.9836,0.1003,-0.1191,0.3681,0.5431
12614,-0.0061,-0.9817,0.1047,-0.1954,0.2612,0.5431
12624,-0.0129,-0.9851,0.1013,-0.2870,0.1849,0.3752
12634,-0.0112,-0.9800,0.1064,-0.3328,0.1391,0.1615
12644,-0.0095,-0.9832,0.1077,-0.4244,0.2307,0.0393
12654,-0.0088,-0.9802,0.1023,-0.4092,0.0933,0.0240
12664,-0.0054,-0.9753,0.1089,-0.4244,0.1696,-0.1439
12674,-0.0005,-0.9736,0.1033,-0.5466,0.3986,-0.1286
12684,-0.0007,-0.9822,0.1023,-0.5924,0.3528,-0.0065
12694,-0.0015,-0.9834,0.0964,-0.6992,0.4902,0.0546
12704,-0.0054,-0.9841,0.0947,-0.5466,0.4292,0.0698
12714,-0.0024,-0.9824,0.0942,-0.2870,0.4597,0.1767
12724,-0.0039,-0.9795,0.1011,-0.2565,0.5666,0.3905
12734,-0.0012,-0.9788,0.0979,-0.3328,0.6276,0.5279
12744,-0.0034,-0.9805,0.1006,-0.4702,0.6276,0.4515
12754,-0.0034,-0.9834,0.0906,-0.3328,0.6124,0.6042
12764,-0.0046,-0.9829,0.1050,-0.2718,0.5055,0.5126
12774,-0.0107,-0.9846,0.1050,-0.3634,0.5360,0.3905
12784,-0.0081,-0.9792,0.1030,-0.3023,0.5208,0.4668
12794,-0.0076,-0.9819,0.1011,-0.3634,0.5666,0.4057
12804,-0.0115,-0.9829,0.1028,-0.3328,0.5818,0.4057
12814,-0.0115,-0.9783,0.1086,-0.4550,0.4444,0.3447
12824,-0.0093,-0.9771,0.1040,-0.5160,0.3528,0.3752
12834,-0.0076,-0.9841,0.0974,-0.4702,0.3376,0.1309
12844,-0.0054,-0.9814,0.1001,-0.5618,0.2460,0.0240
12854,-0.0022,-0.9822,0.1052,-0.5771,0.2460,-0.0218
12864,-0.0056,-0.9834,0.0964,-0.5313,0.3681,0.0240
12874,-0.0042,-0.9780,0.0989,-0.4855,0.3223,0.0698
12884,-0.0015,-0.9822,0.1011,-0.5924,0.4139,0.0851
12894,-0.0056,-0.9785,0.0977,-0.5160,0.3070,0.1309
12904,-0.0049,-0.9773,0.0972,-0.5771,0.3070,0.0698
12914,-0.0020,-0.9841,0.0952,-0.5466,0.2612,0.0546
12924,-0.0037,-0.9854,0.0991,-0.4244,0.2307,0.1920
12934,-0.0049,-0.9790,0.1055,-0.2870,0.2154,0.3294
12944,-0.0056,-0.9810,0.1025,-0.3634,0.2612,0.3141
12954,-0.0061,-0.9785,0.1060,-0.4092,0.3070,0.3905
12964,-0.0083,-0.9807,0.1030,-0.4244,0.3681,0.3447
12974,-0.0098,-0.9839,0.1021,-0.4244,0.4292,0.2836
12984,-0.0090,-0.9834,0.0999,-0.4702,0.4292,0.2683
12994,-0.0120,-0.9783,0.1025,-0.4550,0.4444,0.1767
13004,-0.0071,-0.9780,0.1013,-0.4244,0.3528,0.2225
13014,-0.0071,-0.9788,0.1030,-0.4550,0.3681,0.2531
13024,-0.0051,-0.9824,0.1060,-0.5313,0.4292,0.1920
13034,-0.0020,-0.9788,0.0994,-0.5313,0.3223,0.2531
13044,-0.0054,-0.9817,0.1018,-0.5466,0.3528,0.1156
13054,-0.0037,-0.9819,0.0999,-0.5771,0.2918,0.1920
13064,-0.0051,-0.9778,0.1030,-0.5771,0.3223,0.1156
13074,-0.0049,-0.9795,0.1035,-0.4855,0.3528,0.1309
13084,-0.0068,-0.9800,0.1025,-0.4244,0.3986,0.1767
13094,-0.0022,-0.9822,0.1006,-0.4397,0.4902,0.3447
13104,-0.0024,-0.9795,0.0981,-0.5924,0.4902,0.3752
13114,-0.0039,-0.9822,0.1021,-0.5008,0.4750,0.3752
13124,-0.0044,-0.9829,0.1001,-0.3939,0.4902,0.3599
13134,-0.0107,-0.9822,0.0981,-0.4244,0.3986,0.2378
13144,-0.0063,-0.9792,0.1060,-0.3328,0.2307,0.2073
13154,-0.0090,-0.9785,0.1042,-0.3023,0.2765,0.2531
13164,-0.0088,-0.9780,0.1094,-0.2260,0.2765,0.3447
13174,-0.0073,-0.9783,0.1086,-0.2718,0.1696,0.2378
13184,-0.0049,-0.9827,0.1050,-0.4550,0.1544,0.1462
13194,-0.0085,-0.9817,0.1042,-0.5924,0.1391,-0.0218
13204,-0.0037,-0.9795,0.1023,-0.5466,0.0780,-0.0065
13214,-0.0063,-0.9780,0.0959,-0.4550,0.0780,0.0698
13224,-0.0029,-0.9819,0.1077,-0.3939,0.1391,0.1920
13234,-0.0032,-0.9832,0.0981,-0.3939,0.2612,0.1920
13244,-0.0027,-0.9780,0.1013,-0.4244,0.2154,0.2225
13254,-0.0042,-0.9795,0.0959,-0.5008,0.3681,0.2836
13264,-0.0034,-0.9863,0.0967,-0.5008,0.4444,0.2531
13274,-0.0073,-0.9810,0.1008,-0.4397,0.4750,0.3447
13284,-0.0059,-0.9817,0.0964,-0.4092,0.4139,0.2073
13294,-0.0063,-0.9763,0.1013,-0.4244,0.4292,0.2378
13304,-0.0042,-0.9844,0.1028,-0.4397,0.4444,0.3599
13314,-0.0046,-0.9807,0.1035,-0.3481,0.5208,0.5279
13324,-0.0042,-0.9810,0.0996,-0.4550,0.5818,0.4363
13334,-0.0056,-0.9763,0.1045,-0.4550,0.6582,0.4668
13344,-0.0088,-0.9807,0.1047,-0.4244,0.5055,0.4363
13354,-0.0068,-0.9797,0.1079,-0.3481,0.4597,0.1615
13364,-0.0081,-0.9810,0.1033,-0.4397,0.3528,0.1767
13374,-0.0076,-0.9800,0.1096,-0.4702,0.4139,0.0851
13384,-0.0107,-0.9814,0.1084,-0.4702,0.4597,0.0240
13394,-0.0061,-0.9814,0.1021,-0.5008,0.4139,0.0698
13404,-0.0127,-0.9763,0.1030,-0.5313,0.3376,0.0393
13414,-0.0032,-0.9841,0.1069,-0.5008,0.2154,-0.0065
13424,-0.0122,-0.9800,0.0984,-0.5313,0.1544,-0.0065
13434,-0.0054,-0.9846,0.0991,-0.4855,0.1085,0.0546
13444,-0.0044,-0.9810,0.0981,-0.3786,0.1544,0.1309
13454,-0.0032,-0.9817,0.0945,-0.3786,0.0933,0.0240
13464,-0.0061,-0.9810,0.1001,-0.4855,0.1544,0.1462
13474,-0.0073,-0.9841,0.0964,-0.4244,0.2002,0.1615
13484,-0.0078,-0.9788,0.1064,-0.3634,0.1391,0.2531
13494,-0.0002,-0.9790,0.0984,-0.4092,0.1238,0.2073
13504,-0.0022,-0.9851,0.1008,-0.3634,0.2154,0.1920
13514,-0.0107,-0.9778,0.1055,-0.2565,0.2612,0.1767
13524,-0.0093,-0.9783,0.1042,-0.1649,0.0933,0.2683
13534,-0.0054,-0.9771,0.1055,-0.3481,0.1085,0.1920
13544,-0.0051,-0.9790,0.1125,-0.4397,0.1696,0.2989
13554,-0.0088,-0.9824,0.1023,-0.5771,0.2612,0.2225
13564,-0.0088,-0.9854,0.0996,-0.5160,0.3223,0.1462
13574,-0.0073,-0.9822,0.0989,-0.5771,0.2765,0.2378
13584,-0.0071,-0.9807,0.1003,-0.5160,0.3986,0.2073
13594,-0.0081,-0.9829,0.0999,-0.4397,0.3986,0.1767
13604,-0.0046,-0.9778,0.0994,-0.5008,0.5055,0.1309
13614,-0.0061,-0.9805,0.1018,-0.5008,0.4597,0.1767
13624,-0.0068,-0.9851,0.0955,-0.5771,0.3681,0.0698
13634,-0.0078,-0.9822,0.1008,-0.5466,0.4750,0.1767
13644,-0.0061,-0.9819,0.1003,-0.5771,0.4139,0.1615
13654,-0.0085,-0.9844,0.0979,-0.4397,0.3834,0.1920
13664,-0.0095,-0.9795,0.1023,-0.4092,0.3834,0.2531
13674,-0.0054,-0.9802,0.1003,-0.4702,0.3834,0.3294
13684,-0.0059,-0.9800,0.1018,-0.4855,0.3528,0.2531
13694,-0.0115,-0.9836,0.1045,-0.4702,0.3528,0.1767
13704,-0.0066,-0.9819,0.1055,-0.3481,0.2460,0.1920
13714,-0.0076,-0.9797,0.1150,-0.3939,0.2765,0.2225
13724,-0.0034,-0.9775,0.1028,-0.4092,0.4139,0.2378
13734,-0.0051,-0.9797,0.1030,-0.3786,0.4139,0.3447
13744,-0.0103,-0.9768,0.1006,-0.4397,0.3986,0.3905
13754,-0.0083,-0.9758,0.1018,-0.5313,0.2918,0.2073
13764,-0.0095,-0.9800,0.1072,-0.5466,0.2612,0.1309
13774,-0.0039,-0.9839,0.1055,-0.5313,0.2307,0.0698
13784,-0.0093,-0.9836,0.0989,-0.4855,0.2460,0.1156
13794,-0.0046,-0.9792,0.0986,-0.5008,0.2154,0.1462
13804,-0.0081,-0.9783,0.1028,-0.5008,0.2612,0.1309
13814,-0.0066,-0.9832,0.0994,-0.5160,0.1696,0.1309
13824,-0.0046,-0.9839,0.0962,-0.4550,0.2002,0.0851
13834,-0.0083,-0.9805,0.0989,-0.4397,0.2918,0.1309
13844,-0.0085,-0.9819,0.0947,-0.4702,0.5055,0.1767
13854,-0.0042,-0.9814,0.1018,-0.3634,0.3376,0.2836
13864,-0.0024,-0.9783,0.1006,-0.3786,0.3681,0.2836
13874,-0.0049,-0.9753,0.1018,-0.4855,0.3834,0.2836
13884,-0.0068,-0.9785,0.1084,-0.4550,0.3223,0.2683
13894,-0.0059,-0.9810,0.1045,-0.4855,0.3070,0.2531
13904,-0.0081,-0.9805,0.1011,-0.5008,0.3528,0.1920
13914,-0.0083,-0.9805,0.1060,-0.5160,0.2918,0.2073
13924,-0.0073,-0.9810,0.1016,-0.5313,0.2918,0.2836
13934,-0.0085,-0.9829,0.1064,-0.4702,0.2307,0.2073
13944,-0.0061,-0.9817,0.1033,-0.4550,0.3834,0.1920
13954,-0.0073,-0.9805,0.1055,-0.4397,0.2460,0.0698
13964,-0.0068,-0.9824,0.0959,-0.5008,0.2154,0.0088
13974,-0.0039,-0.9797,0.1008,-0.4550,0.2765,0.1004
13984,-0.0037,-0.9788,0.0996,-0.5160,0.3376,0.1156
13994,-0.0002,-0.9814,0.1021,-0.5466,0.3070,0.1920
14004,-0.0017,-0.9824,0.0974,-0.4550,0.2765,0.1004
14014,-0.0029,-0.9766,0.0989,-0.3176,0.2307,0.0698
14024,-0.0039,-0.9788,0.1011,-0.3634,0.2765,0.2073
14034,-0.0049,-0.9824,0.0962,-0.3786,0.3223,0.2073
14044,-0.0039,-0.9829,0.0996,-0.5008,0.3376,0.1767
14054,-0.0085,-0.9790,0.1074,-0.3634,0.3223,0.2531
14064,-0.0093,-0.9797,0.1016,-0.3023,0.2154,0.2836
14074,-0.0081,-0.9792,0.1099,-0.3023,0.2307,0.2836
14084,-0.0063,-0.9800,0.0996,-0.4855,0.3070,0.2683
14094,-0.0076,-0.9807,0.0977,-0.4244,0.2918,0.3752
14104,-0.0061,-0.9817,0.0981,-0.3786,0.2002,0.2225
14114,-0.0068,-0.9790,0.1030,-0.4702,0.2307,0.1615
14124,-0.0068,-0.9810,0.0974,-0.5313,0.3834,0.2225
14134,-0.0051,-0.9807,0.0979,-0.5008,0.3681,0.1309
14144,-0.0066,-0.9844,0.1003,-0.4244,0.3681,0.1156
14154,-0.0051,-0.9763,0.1008,-0.4550,0.4139,0.2378
14164,-0.0051,-0.9792,0.1006,-0.3634,0.4902,0.2225
14174,-0.0042,-0.9756,0.0967,-0.3634,0.4139,0.2073
14184,-0.0024,-0.9805,0.0996,-0.3481,0.3528,0.1920
14194,-0.0027,-0.9854,0.1021,-0.3939,0.3681,0.1615
14204,-0.0056,-0.9822,0.0977,-0.3786,0.4139,0.1767
14214,-0.0032,-0.9817,0.1003,-0.2412,0.3528,0.2073
14224,-0.0022,-0.9753,0.1062,-0.2107,0.4139,0.3752
14234,-0.0049,-0.9792,0.1016,-0.3176,0.4292,0.3905
14244,-0.0059,-0.9810,0.1021,-0.4397,0.3070,0.2989
14254,-0.0129,-0.9810,0.1033,-0.6076,0.2918,0.2378
14264,-0.0098,-0.9878,0.0981,-0.5160,0.2612,0.1462
14274,-0.0100,-0.9819,0.1040,-0.4397,0.2307,0.0851
14284,-0.0100,-0.9761,0.1074,-0.4550,0.3223,0.0546
14294,-0.0061,-0.9783,0.1077,-0.5008,0.3681,-0.1134
14304,-0.0093,-0.9773,0.0981,-0.6229,0.2307,-0.1286
14314,-0.0066,-0.9751,0.1023,-0.5924,0.2154,-0.0981
14324,-0.0044,-0.9814,0.0964,-0.4855,0.1391,-0.0065
14334,-0.0061,-0.9827,0.0938,-0.4855,0.2460,0.0393
14344,-0.0022,-0.9792,0.0969,-0.3328,0.2002,0.1462
14354,-0.0066,-0.9800,0.1021,-0.2870,0.2307,0.1615
14364,-0.0022,-0.9771,0.1038,-0.3634,0.3223,0.2073
14374,-0.0012,-0.9812,0.0952,-0.3939,0.1544,0.1920
14384,-0.0037,-0.9812,0.0999,-0.5771,0.3070,0.1462
14394,-0.0068,-0.9812,0.0994,-0.5313,0.1849,0.1004
14404,-0.0063,-0.9827,0.1101,-0.4244,0.1085,0.0393
14414,-0.0068,-0.9822,0.0967,-0.4550,0.1391,0.0546
14424,-0.0063,-0.9795,0.0979,-0.3786,0.2612,0.2531
14434,-0.0088,-0.9854,0.1018,-0.4855,0.3681,0.2531
14444,-0.0095,-0.9819,0.1047,-0.5313,0.3376,0.2836
14454,-0.0068,-0.9824,0.1023,-0.5618,0.4597,0.2836
14464,-0.0056,-0.9792,0.1062,-0.5160,0.4292,0.2989
14474,-0.0085,-0.9751,0.1033,-0.5618,0.3986,0.2683
14484,-0.0037,-0.9836,0.0959,-0.3786,0.2460,0.1462
14494,-0.0046,-0.9797,0.0999,-0.4855,0.2154,0.0851
14504,-0.0054,-0.9836,0.1082,-0.4855,0.1085,0.1920
14514,-0.0059,-0.9775,0.1047,-0.5008,0.1391,0.1615
14524,-0.0063,-0.9771,0.0969,-0.5924,0.1849,0.0698
14534,-0.0044,-0.9841,0.1050,-0.5008,0.1391,0.1462
14544,-0.0056,-0.9792,0.1011,-0.4244,0.1085,0.1462
14554,-0.0049,-0.9778,0.1006,-0.3786,0.2002,0.1309
14564,-0.0020,-0.9768,0.1050,-0.3328,0.1849,0.1615
14574,-0.0010,-0.9792,0.1028,-0.3939,0.3528,0.1920
14584,-0.0015,-0.9812,0.1055,-0.5313,0.4597,0.3141
14594,-0.0083,-0.9805,0.1001,-0.4397,0.5208,0.3141
14604,-0.0093,-0.9841,0.1064,-0.3481,0.3681,0.2683
14614,-0.0073,-0.9854,0.1050,-0.4244,0.2918,0.2531
14624,-0.0076,-0.9817,0.1013,-0.3786,0.3070,0.2683
14634,-0.0144,-0.9802,0.1008,-0.3634,0.3070,0.2683
14644,-0.0090,-0.9751,0.1052,-0.4702,0.2612,0.2683
14654,-0.0078,-0.9851,0.0991,-0.5466,0.1696,0.1920
14664,-0.0042,-0.9778,0.1025,-0.5771,0.2154,0.0393
14674,-0.0061,-0.9832,0.1003,-0.6229,0.3070,-0.0370
14684,-0.0088,-0.9783,0.1033,-0.5466,0.2307,-0.0370
14694,-0.0051,-0.9844,0.1028,-0.4855,0.2765,-0.0676
14704,-0.0049,-0.9775,0.1006,-0.4244,0.3070,-0.0828
14714,-0.0046,-0.9802,0.0925,-0.4702,0.3223,-0.0065
14724,-0.0005,-0.9802,0.1016,-0.5466,0.2612,0.0698
14734,-0.0024,-0.9846,0.1008,-0.5313,0.2612,0.1920
14744,-0.0039,-0.9824,0.0962,-0.5008,0.3681,0.2683
14754,-0.0017,-0.9775,0.0989,-0.3634,0.4139,0.3905
14764,-0.0034,-0.9790,0.1082,-0.2412,0.4902,0.4210
14774,-0.0061,-0.9824,0.0994,-0.3023,0.5360,0.3752
14784,-0.0051,-0.9795,0.1023,-0.3634,0.5055,0.3905
14794,-0.0085,-0.9817,0.0999,-0.5008,0.5208,0.4057
14804,-0.0125,-0.9802,0.1052,-0.3939,0.3681,0.2989
14814,-0.0093,-0.9834,0.1057,-0.4702,0.3986,0.3294
14824,-0.0078,-0.9810,0.1006,-0.5618,0.4292,0.2531
14834,-0.0066,-0.9814,0.1033,-0.3786,0.4750,0.2836
14844,-0.0068,-0.9785,0.0991,-0.3328,0.3986,0.2989
14854,-0.0005,-0.9788,0.1072,-0.4702,0.3681,0.1462
14864,-0.0059,-0.9807,0.0979,-0.6076,0.6276,0.2836
14874,-0.0081,-0.9800,0.1069,-0.4855,0.5818,0.2989
14884,-0.0042,-0.9780,0.1016,-0.3786,0.5208,0.2989
14894,-0.0039,-0.9797,0.1013,-0.4550,0.6124,0.1615
14904,-0.0049,-0.9788,0.1028,-0.4092,0.4597,0.2989
14914,-0.0068,-0.9783,0.0986,-0.5160,0.4139,0.2378
14924,-0.0046,-0.9819,0.1064,-0.5313,0.3376,0.2378
14934,-0.0078,-0.9846,0.1033,-0.5618,0.4750,0.1615
14944,-0.0068,-0.9744,0.1045,-0.4397,0.3528,0.2683
14954,-0.0066,-0.9810,0.1003,-0.4397,0.4750,0.1156
14964,-0.0059,-0.9778,0.1047,-0.5160,0.5971,0.0851
14974,-0.0107,-0.9810,0.0972,-0.1649,2.3376,0.1004
14984,-0.0012,-0.9839,0.1077,0.1405,1.8948,0.0393
14994,-0.0024,-0.9802,0.1079,-0.0427,1.3910,0.1920
15004,-0.0056,-0.9851,0.0996,-0.2107,1.0704,0.1615
15014,-0.0034,-0.9756,0.1023,-0.3634,0.8872,0.2683
15024,-0.0068,-0.9812,0.1033,-0.3939,0.7956,0.2225
15034,-0.0059,-0.9783,0.1025,-0.3786,0.5666,0.3294
15044,-0.0073,-0.9849,0.1072,-0.4092,0.5513,0.1462
15054,-0.0063,-0.9773,0.0957,-0.5008,0.4597,0.1920
15064,-0.0073,-0.9807,0.1023,-0.4702,0.3070,0.1615
15074,-0.0066,-0.9824,0.1033,-0.4244,0.2307,0.1920
15084,-0.0007,-0.9800,0.1064,-0.6382,0.0933,0.1156
15094,-0.0017,-0.9814,0.1033,-0.7145,0.2918,0.0698
15104,-0.0049,-0.9856,0.1006,-0.8061,0.1849,-0.0065
15114,-0.0059,-0.9844,0.0977,-0.5924,0.1849,-0.0218
15124,0.0010,-0.9839,0.0991,-0.4244,0.2918,0.0851
15134,-0.0056,-0.9805,0.1018,-0.3786,0.3834,0.2073
15144,-0.0022,-0.9771,0.1052,-0.5313,0.4597,0.2531
15154,-0.0056,-0.9810,0.1033,-0.5466,0.3376,0.3447
15164,-0.0066,-0.9827,0.0984,-0.5618,0.2765,0.2225
15174,-0.0063,-0.9836,0.0974,-0.4550,0.2918,0.2225
15184,-0.0071,-0.9846,0.1030,-0.4092,0.3070,0.0393
15194,-0.0088,-0.9822,0.0974,-0.3634,0.3528,0.2225
15204,-0.0054,-0.9812,0.1079,-0.2565,0.2307,0.2531
15214,-0.0042,-0.9795,0.1086,-0.4244,0.2918,0.2989
15224,-0.0059,-0.9795,0.1064,-0.4702,0.1544,0.2683
15234,-0.0059,-0.9829,0.1084,-0.5618,0.2002,0.1767
15244,-0.0068,-0.9841,0.1089,-0.6687,0.2307,0.1615
15254,-0.0110,-0.9856,0.1011,-0.5924,0.3070,0.2378
15264,-0.0081,-0.9775,0.1040,-0.4092,0.2918,0.2989
15274,-0.0059,-0.9773,0.1016,-0.4092,0.2918,0.3294
15284,-0.0056,-0.9824,0.1013,-0.4855,0.3986,0.1767
15294,-0.0061,-0.9829,0.1023,-0.4702,0.3376,0.2836
15304,-0.0044,-0.9814,0.0967,-0.4244,0.3223,0.3752
15314,-0.0056,-0.9785,0.0999,-0.5008,0.3070,0.3447
15324,0.0007,-0.9814,0.0974,-0.5924,0.2612,0.3141
15334,-0.0054,-0.9851,0.0969,-0.3634,0.2918,0.3752
15344,-0.0059,-0.9817,0.1025,-0.1344,0.2307,0.3752
15354,-0.0056,-0.9739,0.1028,-0.2718,0.2307,0.4210
15364,-0.0078,-0.9817,0.1006,-0.4550,0.2307,0.2989
15374,-0.0095,-0.9792,0.1047,-0.5008,0.2154,0.3141
15384,-0.0068,-0.9846,0.0994,-0.5313,0.2002,0.2683
15394,-0.0056,-0.9846,0.1042,-0.4550,0.2612,0.1920
15404,-0.0059,-0.9788,0.1003,-0.3023,0.2307,0.2378
15414,-0.0076,-0.9773,0.1101,-0.3023,0.2765,0.3599
15424,-0.0110,-0.9795,0.1074,-0.4550,0.2307,0.4210
15434,-0.0081,-0.9783,0.1057,-0.4397,0.1391,0.3294
15444,-0.0059,-0.9836,0.0986,-0.4244,0.2460,0.2683
15454,-0.0076,-0.9817,0.0981,-0.3328,0.2612,0.1767
15464,-0.0078,-0.9810,0.1052,-0.3939,0.2918,0.1156
15474,-0.0054,-0.9800,0.0940,-0.5466,0.3528,0.0698
15484,-0.0100,-0.9788,0.0940,-0.5466,0.3986,0.0393
15494,-0.0032,-0.9790,0.1047,-0.4702,0.3376,0.1309
15504,-0.0046,-0.9844,0.1030,-0.4397,0.3223,0.1462
15514,-0.0020,-0.9824,0.0981,-0.5008,0.3376,0.0546
15524,-0.0059,-0.9768,0.1040,-0.3634,0.2765,0.0546
15534,-0.0071,-0.9834,0.0967,-0.3328,0.3986,0.1462
15544,-0.0029,-0.9839,0.0994,-0.3481,0.3070,0.1004
15554,-0.0056,-0.9785,0.1064,-0.2718,0.3528,0.0851
15564,-0.0042,-0.9753,0.1040,-0.3023,0.2460,0.1156
15574,-0.0017,-0.9783,0.1008,-0.3939,0.2612,0.0851
15584,-0.0066,-0.9797,0.1023,-0.5618,0.2460,0.1615
15594,-0.0054,-0.9785,0.1101,-0.5008,0.2765,0.1615
15604,-0.0071,-0.9814,0.0999,-0.4092,0.3376,0.2073
15614,-0.0071,-0.9812,0.1025,-0.4550,0.2918,0.1462
15624,-0.0061,-0.9814,0.0979,-0.4855,0.2460,0.1156
15634,-0.0056,-0.9812,0.0996,-0.4702,0.3070,0.0546
15644,-0.0059,-0.9780,0.1001,-0.5466,0.3528,0.1920
15654,-0.0085,-0.9805,0.1003,-0.5466,0.3376,0.2378
15664,-0.0078,-0.9846,0.1030,-0.5924,0.3223,0.1309
15674,-0.0083,-0.9829,0.0950,-0.5008,0.3223,0.2073
15684,-0.0037,-0.9792,0.0994,-0.4550,0.2612,0.3447
15694,-0.0071,-0.9812,0.0984,-0.5160,0.2918,0.2836
15704,-0.0063,-0.9810,0.1013,-0.4855,0.2918,0.2836
15714,-0.0088,-0.9817,0.1008,-0.5771,0.3528,0.1767
15724,-0.0042,-0.9836,0.1033,-0.5771,0.3223,0.2073
15734,-0.0059,-0.9797,0.1011,-0.5008,0.2307,0.1767
15744,-0.0066,-0.9854,0.1128,-0.4855,0.1849,0.1156
15754,-0.0110,-0.9824,0.1035,-0.6076,0.2918,0.0546
15764,-0.0083,-0.9849,0.1023,-0.5160,0.2765,0.0240
15774,-0.0063,-0.9822,0.1008,-0.4550,0.3681,0.0393
15784,-0.0061,-0.9836,0.0959,-0.3481,0.3376,0.0698
15794,-0.0066,-0.9800,0.0981,-0.3939,0.3070,0.0851
15804,-0.0029,-0.9829,0.1030,-0.3939,0.2460,0.0698
15814,-0.0032,-0.9839,0.1001,-0.4397,0.3223,0.1920
15824,-0.0017,-0.9844,0.0952,-0.4397,0.3528,0.2836
15834,-0.0020,-0.9768,0.1084,-0.3939,0.3986,0.1767
15844,-0.0005,-0.9797,0.1045,-0.4550,0.3834,0.2378
15854,-0.0046,-0.9817,0.1021,-0.4397,0.4597,0.2531
15864,-0.0020,-0.9814,0.0969,-0.4702,0.4902,0.2531
15874,-0.0046,-0.9802,0.1006,-0.3786,0.4139,0.3141
15884,-0.0049,-0.9805,0.1018,-0.3328,0.4597,0.4057
15894,-0.0068,-0.9807,0.0967,-0.3481,0.3834,0.4515
15904,-0.0090,-0.9819,0.1018,-0.3176,0.3986,0.4515
15914,-0.0103,-0.9824,0.1040,-0.3023,0.3528,0.4057
15924,-0.0078,-0.9851,0.1021,-0.3481,0.3986,0.3905
15934,-0.0078,-0.9861,0.1033,-0.2870,0.2460,0.2836
15944,-0.0093,-0.9807,0.0979,-0.4244,0.1696,0.1309
15954,-0.0085,-0.9834,0.1035,-0.5313,0.1544,0.0698
15964,-0.0046,-0.9807,0.1052,-0.5160,0.2307,0.0393
15974,-0.0068,-0.9836,0.1001,-0.4855,0.2154,0.0698
15984,-0.0061,-0.9814,0.0969,-0.5160,0.2002,0.1462
15994,-0.0103,-0.9775,0.1086,-0.4092,0.2918,0.1767
16004,-0.0032,-0.9822,0.1038,-0.4092,0.3070,0.1767
16014,-0.0054,-0.9819,0.0913,-0.3939,0.3376,0.2683
16024,-0.0066,-0.9783,0.1035,-0.3786,0.3376,0.2683
16034,-0.0020,-0.9812,0.1060,-0.4397,0.2612,0.2225
16044,-0.0037,-0.9805,0.1008,-0.5008,0.2612,0.1462
16054,-0.0061,-0.9800,0.1025,-0.3786,0.3070,0.2225
16064,-0.0044,-0.9788,0.1033,-0.3939,0.2765,0.2683
16074,-0.0042,-0.9763,0.1074,-0.4550,0.3223,0.1920
16084,-0.0085,-0.9839,0.1003,-0.5466,0.3834,0.3141
16094,-0.0066,-0.9834,0.1030,-0.3786,0.4139,0.3141
16104,-0.0093,-0.9819,0.1016,-0.3481,0.4292,0.2989
16114,-0.0083,-0.9827,0.1003,-0.4092,0.4597,0.3905
16124,-0.0085,-0.9819,0.1042,-0.3786,0.4750,0.3447
16134,-0.0078,-0.9785,0.1055,-0.4550,0.4292,0.2225
16144,-0.0073,-0.9802,0.0977,-0.4855,0.4444,0.2378
16154,-0.0110,-0.9800,0.1001,-0.5160,0.3834,0.0698
16164,0.0005,-0.9795,0.0991,-0.3786,0.3376,0.1156
16174,-0.0037,-0.9780,0.1018,-0.3939,0.3070,0.2378
16184,-0.0034,-0.9807,0.1006,-0.5008,0.2765,0.1615
16194,-0.0022,-0.9819,0.0981,-0.4855,0.2765,0.1615
16204,-0.0063,-0.9854,0.1023,-0.4855,0.3070,0.1615
16214,-0.0088,-0.9824,0.1001,-0.4092,0.2765,0.2531
16224,-0.0051,-0.9846,0.1042,-0.4092,0.3681,0.1920
16234,-0.0059,-0.9829,0.1045,-0.4244,0.3223,0.1920
16244,-0.0083,-0.9788,0.1030,-0.3328,0.2612,0.1156
16254,-0.0078,-0.9819,0.1001,-0.3786,0.2154,0.1767
16264,-0.0083,-0.9771,0.1038,-0.3481,0.2307,0.2531
16274,-0.0059,-0.9802,0.1060,-0.5008,0.3070,0.1615
16284,-0.0093,-0.9812,0.1047,-0.6992,0.2765,0.1156
16294,-0.0081,-0.9863,0.1057,-0.6687,0.2154,0.1004
16304,-0.0083,-0.9810,0.1025,-0.5466,0.3376,0.1615
16314,-0.0027,-0.9841,0.0991,-0.3481,0.2918,0.1309
16324,-0.0005,-0.9780,0.0991,-0.3328,0.3223,0.1309
16334,-0.0022,-0.9749,0.1023,-0.3481,0.2765,0.1156
16344,-0.0032,-0.9788,0.0981,-0.5160,0.2460,0.1462
16354,-0.0044,-0.9790,0.1023,-0.4244,0.2612,0.1462
16364,-0.0078,-0.9824,0.1021,-0.5160,0.4139,0.2378
16374,-0.0059,-0.9802,0.0996,-0.4397,0.3986,0.2683
16384,-0.0037,-0.9795,0.1016,-0.4244,0.4139,0.3294
16394,-0.0042,-0.9810,0.1011,-0.3481,0.4597,0.4057
16404,0.0002,-0.9758,0.1089,-0.3328,0.3986,0.4973
16414,-0.0076,-0.9795,0.1040,-0.3786,0.4139,0.5431
16424,-0.0100,-0.9807,0.1064,-0.4092,0.3528,0.4973
16434,-0.0088,-0.9810,0.1023,-0.3939,0.3528,0.4363
16444,-0.0120,-0.9810,0.0979,-0.4092,0.2765,0.2531
16454,-0.0134,-0.9844,0.1077,-0.4550,0.2460,0.1767
16464,-0.0105,-0.9824,0.1018,-0.5618,0.3528,0.1309
16474,-0.0063,-0.9788,0.0991,-0.6534,0.2918,0.0546
16484,-0.0066,-0.9836,0.1040,-0.6076,0.2612,0.0698
16494,-0.0049,-0.9790,0.1033,-0.5466,0.0627,0.0851
16504,-0.0024,-0.9792,0.0981,-0.6229,0.2154,-0.0828
16514,-0.0068,-0.9851,0.0977,-0.5771,0.3376,0.0698
16524,-0.0068,-0.9790,0.1025,-0.4550,0.2612,0.0546
16534,-0.0059,-0.9797,0.1030,-0.5313,0.3528,0.0851
16544,-0.0076,-0.9771,0.1050,-0.5008,0.3986,0.0851
16554,-0.0027,-0.9800,0.0986,-0.5466,0.3528,0.1004
16564,-0.0027,-0.9783,0.1052,-0.5924,0.3223,0.1156
16574,-0.0046,-0.9832,0.0974,-0.4397,0.3528,0.1767
16584,-0.0068,-0.9788,0.1030,-0.3939,0.3986,0.2531
16594,-0.0066,-0.9822,0.1025,-0.4397,0.4292,0.3294
16604,-0.0095,-0.9817,0.1057,-0.4550,0.4292,0.3141
16614,-0.0093,-0.9822,0.1003,-0.2870,0.4597,0.2989
16624,-0.0071,-0.9817,0.0999,-0.3634,0.4597,0.2683
16634,-0.0110,-0.9778,0.1040,-0.3176,0.4292,0.1767
16644,-0.0076,-0.9797,0.1033,-0.3939,0.2765,0.1615
16654,-0.0083,-0.9775,0.1047,-0.5008,0.2918,0.1156
16664,-0.0090,-0.9783,0.1016,-0.4244,0.2765,0.0088
16674,-0.0034,-0.9768,0.0974,-0.4550,0.2765,0.1156
16684,-0.0071,-0.9827,0.1042,-0.5008,0.3986,0.2225
16694,-0.0081,-0.9800,0.1038,-0.4855,0.3528,0.1462
16704,-0.0059,-0.9800,0.1050,-0.4550,0.3070,0.1767
16714,-0.0051,-0.9795,0.1016,-0.5618,0.2918,0.0546
16724,-0.0066,-0.9824,0.0994,-0.6840,0.4139,0.0851
16734,-0.0020,-0.9832,0.0989,-0.4550,0.3070,0.0851
16744,-0.0037,-0.9807,0.1094,-0.5160,0.3681,0.1004
16754,-0.0020,-0.9771,0.0920,-0.4092,0.3528,0.1615
16764,-0.0024,-0.9788,0.1001,-0.3786,0.3834,0.2073
16774,-0.0083,-0.9783,0.0952,-0.4244,0.4902,0.2378
16784,-0.0068,-0.9827,0.0984,-0.5160,0.4444,0.3141
16794,-0.0073,-0.9832,0.1038,-0.3786,0.3834,0.2836
16804,-0.0112,-0.9797,0.1060,-0.5313,0.2765,0.2073
16814,-0.0081,-0.9802,0.1067,-0.4702,0.3528,0.2378
16824,-0.0061,-0.9812,0.1021,-0.4244,0.3834,0.2836
16834,-0.0081,-0.9829,0.0979,-0.3328,0.2918,0.2225
16844,-0.0046,-0.9771,0.1021,-0.3786,0.3070,0.1156
16854,-0.0049,-0.9763,0.0999,-0.5313,0.2612,0.1004
16864,-0.0024,-0.9827,0.1001,-0.5466,0.2307,0.1920
16874,-0.0029,-0.9795,0.0989,-0.5618,0.2154,0.2073
16884,-0.0071,-0.9817,0.1006,-0.6382,0.1849,0.2073
16894,-0.0032,-0.9878,0.1033,-0.5466,0.2307,0.1920
