timestamp_ms,ax,ay,az,gx,gy,gz
3964,-0.0476,-0.0876,-0.8860,0.3757,-0.1773,-0.0106
3974,-0.0544,-0.0732,-0.8948,-0.1281,-0.1010,-0.0717
3984,-0.0298,-0.0618,-0.8918,-0.2655,0.0822,0.0810
3994,-0.0452,-0.0808,-0.9109,0.3452,0.1585,0.0963
4004,-0.0381,-0.0852,-0.9028,0.6811,0.1738,0.0199
4014,-0.0378,-0.0925,-0.8997,0.4979,0.0059,0.0199
4024,-0.0369,-0.0913,-0.8933,-0.0976,-0.0094,0.0657
4034,-0.0405,-0.0762,-0.8997,-0.8609,-0.0705,-0.0106
4044,-0.0359,-0.0759,-0.8997,-0.9067,-0.0094,-0.0259
4054,-0.0391,-0.0837,-0.8945,-0.5708,-0.0247,-0.0259
4064,-0.0391,-0.0740,-0.8818,-0.4334,0.0822,0.0657
4074,-0.0432,-0.0815,-0.8938,0.0246,0.0364,0.0657
4084,-0.0420,-0.0840,-0.8975,0.1773,0.1433,0.0810
4094,-0.0413,-0.0776,-0.8955,0.0551,0.2196,0.0963
4104,-0.0430,-0.0713,-0.8979,0.2536,0.1738,0.0810
4114,-0.0352,-0.0779,-0.8970,0.3910,0.0364,-0.0259
4124,-0.0332,-0.0894,-0.9001,0.3299,-0.0399,-0.0717
4134,-0.0388,-0.0769,-0.8962,0.0398,-0.1163,-0.0259
4144,-0.0432,-0.0798,-0.8936,-0.2350,-0.0399,-0.1022
4154,-0.0422,-0.0786,-0.8806,-0.3571,0.0059,-0.1633
4164,-0.0457,-0.0774,-0.8933,-0.2502,0.0517,-0.1022
4174,-0.0444,-0.0781,-0.8882,-0.0365,0.0364,-0.0564
4184,-0.0383,-0.0854,-0.8979,0.1925,0.0211,-0.0106
4194,-0.0415,-0.0845,-0.8997,0.1620,0.0364,0.0810
4204,-0.0310,-0.0781,-0.8958,0.0856,0.0059,0.0963
4214,-0.0374,-0.0864,-0.8972,-0.0518,0.0211,0.0352
4224,-0.0334,-0.0850,-0.8945,-0.1128,0.0211,0.0047
4234,-0.0383,-0.0815,-0.8909,-0.1434,0.0059,0.0199
4244,-0.0408,-0.0779,-0.8877,0.0704,-0.0247,-0.0259
4254,-0.0442,-0.0801,-0.8933,0.1620,-0.0247,-0.0106
4264,-0.0388,-0.0808,-0.8909,0.2078,-0.0857,0.0199
4274,-0.0361,-0.0818,-0.8999,0.2078,-0.0857,-0.0564
4284,-0.0408,-0.0811,-0.8918,0.2231,-0.1010,0.0199
4294,-0.0337,-0.0781,-0.8970,0.0551,-0.1926,0.0199
4304,-0.0386,-0.0728,-0.8982,-0.2044,-0.0552,0.0047
4314,-0.0432,-0.0835,-0.9036,-0.3876,-0.0399,-0.0259
4324,-0.0430,-0.0750,-0.9014,-0.3876,-0.0857,-0.0411
4334,-0.0435,-0.0752,-0.8833,-0.2044,-0.1315,-0.0259
4344,-0.0378,-0.0791,-0.8904,-0.0670,-0.1621,-0.0869
4354,-0.0369,-0.0823,-0.8931,0.0398,-0.1468,-0.0259
4364,-0.0183,-0.0864,-0.8721,-0.0212,-0.1163,0.0047
4374,-0.0435,-0.0815,-0.9050,0.0704,-0.1468,-0.0717
4384,-0.0352,-0.0820,-0.8838,-0.2044,-0.0247,-0.0106
4394,-0.0400,-0.0833,-0.8843,-0.1128,0.0059,0.0199
4404,-0.0420,-0.0764,-0.8855,0.0093,-0.0552,-0.0869
4414,-0.0415,-0.0789,-0.8955,0.2536,-0.1163,-0.0717
4424,-0.0444,-0.0779,-0.8933,0.3452,-0.1621,-0.0411
4434,-0.0437,-0.0762,-0.8955,0.3452,-0.1315,-0.0717
4444,-0.0420,-0.0789,-0.8933,0.2536,-0.0094,0.0199
4454,-0.0417,-0.0859,-0.9023,0.1009,0.0822,-0.0717
4464,-0.0374,-0.0752,-0.8967,-0.0518,0.1127,-0.0411
4474,-0.0442,-0.0859,-0.9016,-0.2044,0.0669,-0.0259
4484,-0.0403,-0.0750,-0.8882,-0.2960,-0.0247,-0.1022
4494,-0.0405,-0.0706,-0.8894,-0.2044,-0.0857,-0.0106
4504,-0.0305,-0.0901,-0.8989,0.1315,-0.0247,-0.0259
4514,-0.0356,-0.0955,-0.9021,0.1315,-0.1163,-0.0717
4524,-0.0339,-0.0798,-0.8940,-0.1892,-0.0247,-0.0106
4534,-0.0366,-0.0815,-0.8796,-0.2808,-0.0247,-0.0411
4544,-0.0427,-0.0791,-0.8916,-0.3266,0.0364,-0.0869
4554,-0.0476,-0.0764,-0.8865,-0.1434,0.0975,-0.1022
4564,-0.0447,-0.0764,-0.8899,0.3147,0.0517,-0.0411
4574,-0.0466,-0.0752,-0.8914,0.5895,0.1280,0.1115
4584,-0.0396,-0.0757,-0.8950,0.8337,0.1433,0.0657
4594,-0.0408,-0.0845,-0.9036,0.8032,0.0517,0.1115
4604,-0.0393,-0.0903,-0.9104,0.4826,0.0975,0.0199
4614,-0.0374,-0.0828,-0.9060,-0.0976,0.0517,-0.0411
4624,-0.0374,-0.0818,-0.8965,-0.4792,0.0364,-0.0259
4634,-0.0415,-0.0779,-0.8918,-0.5556,-0.0399,0.0352
4644,-0.0393,-0.0730,-0.8850,-0.4945,-0.0552,0.0810
4654,-0.0386,-0.0830,-0.8958,-0.0976,0.0822,-0.0411
4664,-0.0354,-0.0825,-0.9016,0.0246,0.0669,-0.0869
4674,-0.0317,-0.0833,-0.9006,0.1773,-0.0552,0.0505
4684,-0.0371,-0.0859,-0.9014,0.3147,-0.1010,-0.0869
4694,-0.0371,-0.0901,-0.9062,-0.0060,-0.0247,0.0047
4704,-0.0405,-0.0798,-0.8972,-0.2502,-0.0399,-0.0259
4714,-0.0439,-0.0818,-0.8945,-0.3418,-0.1163,-0.0259
4724,-0.0435,-0.0769,-0.8828,-0.3724,-0.1010,-0.0106
4734,-0.0417,-0.0686,-0.8865,-0.1739,-0.0705,0.0352
4744,-0.0464,-0.0747,-0.8953,0.2231,0.0059,0.0352
4754,-0.0437,-0.0781,-0.8921,0.4521,0.0822,0.0352
4764,-0.0403,-0.0852,-0.9038,0.4215,0.0364,0.1573
4774,-0.0413,-0.0813,-0.8970,0.0551,0.1280,0.0199
4784,-0.0381,-0.0745,-0.8909,-0.1892,0.0364,-0.0106
4794,-0.0396,-0.0769,-0.8850,-0.1739,0.0364,0.0199
4804,-0.0408,-0.0747,-0.8860,-0.0060,0.0059,-0.0411
4814,-0.0366,-0.0784,-0.8958,0.4063,0.0211,-0.1480
4824,-0.0403,-0.0811,-0.9006,0.4673,0.0975,-0.1480
4834,-0.0354,-0.0867,-0.9041,0.4368,0.0822,-0.0106
4844,-0.0386,-0.0845,-0.9009,0.1467,0.0517,-0.0564
4854,-0.0359,-0.0820,-0.9001,0.0246,0.1127,0.0047
4864,-0.0422,-0.0754,-0.8901,0.1620,0.0364,-0.0106
4874,-0.0417,-0.0789,-0.8906,0.2078,0.0211,-0.0869
4884,-0.0442,-0.0798,-0.9011,0.3452,0.0669,0.0199
4894,-0.0413,-0.0864,-0.9075,0.3910,-0.0247,-0.0259
4904,-0.0408,-0.0828,-0.8997,-0.0976,-0.1468,-0.0106
4914,-0.0420,-0.0745,-0.8906,-0.4792,-0.1315,0.0352
4924,-0.0398,-0.0798,-0.8989,-0.4792,0.0364,-0.0717
4934,-0.0378,-0.0730,-0.8933,-0.4487,0.0669,0.0505
4944,-0.0383,-0.0776,-0.8894,-0.2197,0.0211,0.0199
4954,-0.0403,-0.0820,-0.8958,0.0246,-0.0094,0.0047
4964,-0.0347,-0.0813,-0.8982,-0.0060,-0.0247,0.0505
4974,-0.0405,-0.0759,-0.8936,-0.1586,-0.0705,0.0505
4984,-0.0327,-0.0791,-0.8955,-0.0518,-0.2079,-0.0106
4994,-0.0310,-0.0850,-0.8865,-0.1434,-0.2079,-0.0564
5004,-0.0415,-0.0779,-0.8967,0.0856,-0.2537,-0.1175
5014,-0.0371,-0.0754,-0.9058,0.1467,-0.2384,-0.1633
5024,-0.0396,-0.0815,-0.8882,0.1925,-0.1468,-0.1022
5034,-0.0439,-0.0813,-0.8862,0.2994,-0.0705,-0.1480
5044,-0.0444,-0.0752,-0.8938,0.3147,-0.0399,-0.0869
5054,-0.0454,-0.0759,-0.8960,0.4368,0.0822,-0.0106
5064,-0.0459,-0.0862,-0.9043,0.4673,0.1585,-0.0259
5074,-0.0420,-0.0852,-0.8960,0.2689,0.0822,-0.0106
5084,-0.0378,-0.0813,-0.8926,0.0246,0.0822,0.0810
5094,-0.0386,-0.0730,-0.9026,-0.1128,0.0211,0.0505
5104,-0.0354,-0.0786,-0.9038,0.0704,-0.0094,0.0352
5114,-0.0403,-0.0874,-0.8975,0.1009,-0.0705,-0.0564
5124,-0.0422,-0.0867,-0.8970,-0.0212,0.0669,-0.0259
5134,-0.0388,-0.0803,-0.9062,-0.0212,-0.0247,-0.0869
5144,-0.0347,-0.0879,-0.9031,-0.1586,-0.1010,-0.1175
5154,-0.0349,-0.0864,-0.8950,-0.3266,-0.0552,-0.0411
5164,-0.0391,-0.0798,-0.8960,-0.2808,-0.1163,0.0963
5174,-0.0327,-0.0789,-0.8955,-0.2960,-0.1010,0.1115
5184,-0.0388,-0.0806,-0.8948,-0.3876,-0.0552,-0.0411
5194,-0.0413,-0.0757,-0.8916,-0.4487,-0.0247,0.0199
5204,-0.0425,-0.0706,-0.8845,-0.3418,-0.0552,0.0505
5214,-0.0430,-0.0759,-0.8860,-0.0060,0.0059,0.0047
5224,-0.0471,-0.0825,-0.8892,0.2383,0.0211,-0.0564
5234,-0.0435,-0.0808,-0.9021,0.2689,0.0364,0.0352
5244,-0.0391,-0.0825,-0.9011,0.2689,0.0669,0.0047
5254,-0.0410,-0.0769,-0.8904,0.0398,0.0975,-0.0259
5264,-0.0337,-0.0762,-0.8931,-0.0212,0.1433,-0.0259
5274,-0.0337,-0.0752,-0.8953,0.1315,0.0822,-0.0411
5284,-0.0430,-0.0757,-0.8870,0.1315,0.0517,-0.0869
5294,-0.0405,-0.0747,-0.8865,0.4063,0.0822,-0.1327
5304,-0.0417,-0.0835,-0.9045,0.5895,0.0822,-0.0717
5314,-0.0391,-0.0896,-0.9053,0.5742,-0.0094,0.0047
5324,-0.0403,-0.0842,-0.8882,0.4368,-0.1163,0.0505
5334,-0.0388,-0.0725,-0.8923,0.2078,-0.1926,-0.0259
5344,-0.0398,-0.0815,-0.8970,0.2383,0.0059,-0.0259
5354,-0.0437,-0.0835,-0.9102,0.0246,0.1127,-0.0106
5364,-0.0415,-0.0891,-0.9009,-0.0518,0.1280,0.1115
5374,-0.0427,-0.0796,-0.8894,-0.1434,-0.0094,0.0505
5384,-0.0461,-0.0815,-0.8870,-0.3266,-0.0705,0.0657
5394,-0.0393,-0.0776,-0.9011,-0.3571,-0.1163,0.0199
5404,-0.0361,-0.0771,-0.9028,-0.1739,-0.2079,-0.0411
5414,-0.0378,-0.0793,-0.8894,0.0093,-0.1010,-0.0411
5424,-0.0420,-0.0796,-0.8911,-0.1281,-0.0247,-0.0564
5434,-0.0354,-0.0845,-0.8999,-0.2655,0.1433,-0.0717
5444,-0.0396,-0.0857,-0.9048,-0.4334,0.0517,-0.0717
5454,-0.0432,-0.0789,-0.8872,-0.4792,-0.0857,-0.0411
5464,-0.0430,-0.0754,-0.8875,-0.1739,-0.1621,0.0047
5474,-0.0361,-0.0745,-0.8933,0.1162,-0.2537,-0.0106
5484,-0.0391,-0.0813,-0.9004,0.3147,-0.2537,-0.1022
5494,-0.0352,-0.0842,-0.8967,0.4673,-0.1926,-0.0564
5504,-0.0461,-0.0735,-0.8872,0.4215,0.0211,-0.1327
5514,-0.0481,-0.0815,-0.9026,0.2841,0.2044,-0.1327
5524,-0.0273,-0.0698,-0.8767,0.1773,0.0975,0.0199
5534,-0.0530,-0.0779,-0.8806,0.5589,0.0975,-0.0106
5544,-0.0439,-0.0791,-0.8950,0.8185,0.0364,0.0352
5554,-0.0435,-0.0879,-0.9045,0.9253,0.1738,-0.0717
5564,-0.0381,-0.0889,-0.9094,0.7269,0.0975,0.0047
5574,-0.0354,-0.0933,-0.9094,0.1009,0.0669,0.0047
5584,-0.0381,-0.0815,-0.8970,-0.8456,-0.0552,-0.0106
5594,-0.0383,-0.0774,-0.9006,-1.1968,-0.0552,-0.0106
5604,-0.0378,-0.0837,-0.8967,-1.0594,-0.0094,-0.0106
5614,-0.0386,-0.0806,-0.8970,-0.7082,-0.0705,0.0352
5624,-0.0361,-0.0769,-0.8918,-0.2808,-0.1315,0.0047
5634,-0.0403,-0.0869,-0.8982,-0.0060,-0.0857,0.0657
5644,-0.0378,-0.0845,-0.9058,-0.0060,0.0364,0.0047
5654,-0.0383,-0.0786,-0.9016,-0.1892,-0.0094,0.0505
5664,-0.0439,-0.0779,-0.8918,-0.3113,-0.1315,0.0352
5674,-0.0437,-0.0693,-0.8828,-0.4945,-0.0552,0.0047
5684,-0.0457,-0.0713,-0.8884,-0.1281,-0.0247,-0.1022
5694,-0.0505,-0.0791,-0.8960,0.1467,0.0975,0.0047
5704,-0.0442,-0.0793,-0.8933,0.1925,0.0517,-0.0106
5714,-0.0410,-0.0798,-0.8896,0.2231,0.0669,0.0047
5724,-0.0344,-0.0789,-0.8940,0.2231,0.0517,0.0657
5734,-0.0330,-0.0845,-0.8945,0.2841,0.1891,0.0505
5744,-0.0305,-0.0767,-0.9023,0.1315,0.0975,-0.0717
5754,-0.0347,-0.0779,-0.8997,0.1773,-0.0247,-0.1327
5764,-0.0354,-0.0837,-0.8950,0.2078,-0.0247,-0.1633
5774,-0.0400,-0.0835,-0.8896,0.1925,-0.0552,-0.1327
5784,-0.0427,-0.0801,-0.8931,0.2078,-0.1163,-0.0259
5794,-0.0449,-0.0811,-0.8894,0.3605,-0.0705,0.0352
5804,-0.0388,-0.0803,-0.8945,0.4063,0.0364,0.0505
5814,-0.0420,-0.0801,-0.8918,0.4368,0.0211,0.0810
5824,-0.0454,-0.0828,-0.8977,0.5284,0.0975,0.0810
5834,-0.0383,-0.0796,-0.8989,0.3452,0.1585,0.0199
5844,-0.0396,-0.0825,-0.9038,0.2536,-0.0094,-0.0259
5854,-0.0383,-0.0945,-0.9060,0.0704,0.0059,-0.0411
5864,-0.0400,-0.0901,-0.9014,-0.6166,-0.0857,0.0047
5874,-0.0400,-0.0781,-0.8916,-1.2121,-0.1315,0.0352
5884,-0.0396,-0.0750,-0.8948,-1.2121,-0.1010,0.0352
5894,-0.0383,-0.0757,-0.8843,-0.9373,-0.0247,0.0505
5904,-0.0376,-0.0698,-0.8853,-0.5250,0.0975,0.0352
5914,-0.0371,-0.0718,-0.8904,0.0551,0.1280,0.0963
5924,-0.0378,-0.0808,-0.8975,0.6353,0.0364,0.0505
5934,-0.0347,-0.0859,-0.9043,0.7116,0.0059,0.0657
5944,-0.0396,-0.0874,-0.9045,0.4368,-0.0857,0.0047
5954,-0.0366,-0.0859,-0.9014,0.0551,-0.0247,0.0199
5964,-0.0398,-0.0764,-0.8911,-0.3113,-0.0094,-0.0259
5974,-0.0464,-0.0615,-0.8774,-0.1739,-0.0247,-0.0411
5984,-0.0425,-0.0691,-0.8921,0.5284,0.0364,-0.0411
5994,-0.0400,-0.0894,-0.8999,0.8795,0.0364,-0.0717
6004,-0.0349,-0.0889,-0.8992,0.8643,0.0059,-0.1022
6014,-0.0400,-0.0850,-0.9028,0.4521,-0.0399,-0.0717
6024,-0.0425,-0.0818,-0.8953,0.1162,0.0364,-0.0259
6034,-0.0396,-0.0742,-0.8918,0.0093,0.1280,-0.0411
6044,-0.0361,-0.0789,-0.8940,0.0093,0.0975,-0.0564
6054,-0.0396,-0.0847,-0.8943,0.2078,0.0211,-0.1175
6064,-0.0408,-0.0850,-0.8967,0.3147,-0.0247,-0.0259
6074,-0.0398,-0.0874,-0.9026,0.2994,-0.0705,0.0199
6084,-0.0383,-0.0886,-0.9109,-0.0212,-0.1010,-0.0259
6094,-0.0408,-0.0867,-0.9026,-0.3113,-0.2384,-0.0411
6104,-0.0386,-0.0740,-0.8843,-0.7388,-0.1621,-0.0106
6114,-0.0425,-0.0674,-0.8757,-0.7388,-0.1773,-0.0259
6124,-0.0442,-0.0742,-0.8911,-0.3266,-0.0399,-0.1022
6134,-0.0437,-0.0789,-0.9031,-0.0365,0.0059,0.0047
6144,-0.0435,-0.0840,-0.9009,0.2231,-0.0094,-0.0411
6154,-0.0439,-0.0854,-0.8958,0.2689,-0.0705,0.0199
6164,-0.0383,-0.0857,-0.8960,-0.1586,-0.1163,0.0352
6174,-0.0444,-0.0742,-0.8965,-0.4792,-0.1010,0.0505
6184,-0.0452,-0.0740,-0.8870,-0.5708,-0.1315,0.0047
6194,-0.0415,-0.0605,-0.8826,-0.4029,0.0211,-0.0411
6204,-0.0383,-0.0706,-0.8928,0.2841,0.1280,-0.0564
6214,-0.0374,-0.0857,-0.9087,0.9406,0.1891,-0.1327
6224,-0.0398,-0.0925,-0.9045,1.0780,0.0669,-0.0259
6234,-0.0376,-0.0908,-0.8977,0.8643,-0.0247,-0.0411
6244,-0.0383,-0.0828,-0.8979,0.2994,-0.1315,-0.0564
6254,-0.0366,-0.0752,-0.8960,-0.1281,-0.0857,-0.1785
6264,-0.0374,-0.0776,-0.8979,-0.1586,-0.0399,-0.1327
6274,-0.0388,-0.0784,-0.8867,0.1315,-0.0705,-0.1175
6284,-0.0496,-0.0798,-0.8896,0.4063,-0.0247,-0.0564
6294,-0.0491,-0.0864,-0.8921,0.4063,-0.0399,-0.0259
6304,-0.0427,-0.0920,-0.9048,0.3757,-0.0094,-0.0106
6314,-0.0388,-0.0930,-0.9016,0.0704,-0.0399,0.0505
6324,-0.0400,-0.0908,-0.8967,-0.2808,-0.1010,0.0810
6334,-0.0383,-0.0774,-0.8960,-0.6930,-0.1010,0.0199
6344,-0.0361,-0.0752,-0.8923,-0.7998,-0.0552,0.0505
6354,-0.0396,-0.0754,-0.8911,-0.5861,-0.0094,-0.0411
6364,-0.0398,-0.0754,-0.8838,-0.4029,0.0364,0.0047
6374,-0.0408,-0.0762,-0.8848,0.0704,0.0822,-0.0106
6384,-0.0364,-0.0864,-0.9089,0.3605,0.0822,-0.0106
6394,-0.0393,-0.0820,-0.9048,0.3910,-0.0247,0.0047
6404,-0.0359,-0.0789,-0.9001,0.3299,-0.0857,0.0199
6414,-0.0334,-0.0781,-0.8967,0.1315,-0.0857,0.0047
6424,-0.0371,-0.0789,-0.8940,-0.0060,-0.0094,-0.0106
6434,-0.0437,-0.0811,-0.8960,-0.0976,0.0059,-0.0106
6444,-0.0454,-0.0781,-0.8889,-0.2808,-0.0247,0.0047
6454,-0.0474,-0.0742,-0.8867,-0.2808,0.0059,0.0047
6464,-0.0417,-0.0811,-0.8960,-0.0060,0.0822,0.0657
6474,-0.0461,-0.0811,-0.8999,0.4215,0.0517,-0.0259
6484,-0.0356,-0.0803,-0.8862,0.5131,0.0059,0.0505
6494,-0.0376,-0.0774,-0.8916,0.6811,0.0517,-0.0411
6504,-0.0342,-0.0876,-0.9150,0.4979,0.0822,-0.1022
6514,-0.0400,-0.0828,-0.8921,0.1467,0.0669,-0.1480
6524,-0.0437,-0.0908,-0.9023,-0.0212,0.0211,-0.1480
6534,-0.0452,-0.0767,-0.8901,-0.3571,0.0211,-0.0869
6544,-0.0417,-0.0701,-0.8867,-0.4182,-0.0094,-0.0106
6554,-0.0427,-0.0764,-0.8979,-0.0976,0.0059,-0.0259
6564,-0.0366,-0.0801,-0.8967,0.2994,-0.0247,0.0047
6574,-0.0352,-0.0825,-0.8972,0.4368,-0.0857,0.0047
6584,-0.0396,-0.0830,-0.9019,0.3605,-0.1315,-0.0259
6594,-0.0369,-0.0811,-0.8914,0.0704,-0.0552,-0.0869
6604,-0.0417,-0.0879,-0.9011,-0.2960,-0.0094,-0.0259
6614,-0.0457,-0.0801,-0.9009,-0.4945,-0.0247,-0.0259
6624,-0.0449,-0.0776,-0.8875,-0.5098,0.0059,0.0047
6634,-0.0454,-0.0759,-0.8931,-0.2655,-0.0094,0.0199
6644,-0.0383,-0.0754,-0.8989,0.0246,0.0822,0.0810
6654,-0.0388,-0.0825,-0.8921,0.2689,0.1433,0.0810
6664,-0.0417,-0.0728,-0.8899,0.4063,0.0211,0.0352
6674,-0.0396,-0.0769,-0.8884,0.4368,0.1585,-0.0259
6684,-0.0371,-0.0771,-0.8918,0.4521,0.1433,-0.1022
6694,-0.0393,-0.0876,-0.9080,0.5895,0.2044,-0.0717
6704,-0.0359,-0.0930,-0.9031,0.4215,0.0822,-0.0106
6714,-0.0374,-0.0862,-0.8975,-0.0518,-0.0247,0.0352
6724,-0.0364,-0.0781,-0.8950,-0.5098,-0.0552,0.0810
6734,-0.0413,-0.0674,-0.8752,-0.6624,-0.0399,0.0505
6744,-0.0430,-0.0693,-0.8855,-0.2044,0.0211,-0.0564
6754,-0.0369,-0.0789,-0.8748,0.2689,0.2044,-0.0869
6764,-0.0432,-0.0745,-0.9011,0.5895,0.2960,0.0047
6774,-0.0405,-0.0835,-0.9104,1.0475,0.2502,0.0505
6784,-0.0413,-0.0911,-0.9001,1.0627,0.0975,0.0657
6794,-0.0371,-0.0955,-0.8992,0.5895,-0.0247,0.0047
6804,-0.0339,-0.0947,-0.9053,-0.0976,-0.2231,-0.0869
6814,-0.0374,-0.0796,-0.9016,-0.9983,-0.2231,-0.1327
6824,-0.0400,-0.0598,-0.8696,-1.2884,-0.2689,-0.0869
6834,-0.0364,-0.0642,-0.8840,-0.6319,-0.1010,-0.0717
6844,-0.0427,-0.0833,-0.9041,0.0398,0.0975,-0.0564
6854,-0.0396,-0.0901,-0.8931,0.1925,0.2654,0.0352
6864,-0.0476,-0.0798,-0.9041,0.2078,0.0975,0.1268
6874,-0.0369,-0.0876,-0.9087,-0.0670,0.0975,0.2184
6884,-0.0417,-0.0889,-0.8989,-0.6777,0.1280,0.2489
6894,-0.0432,-0.0693,-0.8882,-1.1663,0.0975,0.1726
6904,-0.0457,-0.0703,-0.8755,-0.9678,0.0822,0.1421
6914,-0.0439,-0.0701,-0.8906,-0.6472,0.2807,0.0963
6924,-0.0498,-0.0789,-0.8936,0.1315,0.2807,0.1268
6934,-0.0420,-0.0864,-0.8892,0.4673,0.2349,0.0657
6944,-0.0430,-0.0833,-0.8999,0.4673,0.1891,0.0963
6954,-0.0320,-0.0828,-0.8882,0.2536,0.1280,0.0657
6964,-0.0383,-0.0764,-0.8967,0.1162,0.0059,0.0199
6974,-0.0317,-0.0742,-0.8892,0.1009,0.0517,0.0199
6984,-0.0334,-0.0742,-0.8833,0.3605,-0.0094,-0.0259
6994,-0.0415,-0.0662,-0.8928,0.8337,0.1280,-0.0564
7004,-0.0376,-0.0706,-0.9028,1.4292,0.1433,-0.1480
7014,-0.0435,-0.0984,-0.9089,1.6276,0.1433,-0.0869
7024,-0.0452,-0.0999,-0.9067,1.0475,-0.0094,-0.1022
7034,-0.0408,-0.0901,-0.8928,0.2841,-0.0094,0.0505
7044,-0.0364,-0.0884,-0.8972,-0.4182,-0.0094,0.0810
7054,-0.0356,-0.0854,-0.8987,-0.8762,0.0059,0.0963
7064,-0.0344,-0.0776,-0.8931,-1.1510,-0.1926,0.1115
7074,-0.0374,-0.0723,-0.8926,-1.0289,-0.1773,0.0810
7084,-0.0496,-0.0664,-0.9460,-0.6319,-0.2079,-0.0106
7094,-0.0437,-0.0967,-0.8948,-0.5403,-0.2384,-0.1022
7104,-0.0525,-0.0864,-0.9001,-1.0136,-0.2079,0.0047
7114,-0.0400,-0.0640,-0.8875,-1.0136,-0.0552,0.0505
7124,-0.0498,-0.0728,-0.9011,-0.7846,-0.0857,0.0199
7134,-0.0361,-0.0762,-0.8704,-0.4792,0.0211,0.0657
7144,-0.0388,-0.0786,-0.8853,-0.0060,0.0364,0.0657
7154,-0.0383,-0.0757,-0.9019,0.2994,0.0517,-0.0106
7164,-0.0308,-0.0815,-0.9109,0.3299,-0.0247,0.0199
7174,-0.0349,-0.0828,-0.8989,-0.2044,0.0059,0.0352
7184,-0.0376,-0.0808,-0.8928,-0.3571,-0.0247,0.0505
7194,-0.0396,-0.0647,-0.9009,-0.3418,0.0059,0.0352
7204,-0.0408,-0.0750,-0.8867,-0.1128,0.0669,-0.0411
7214,-0.0422,-0.0881,-0.8899,0.2689,0.0517,-0.0106
7224,-0.0420,-0.0923,-0.8953,0.5284,0.0975,-0.0564
7234,-0.0403,-0.0791,-0.8960,0.3910,0.2044,-0.0106
7244,-0.0391,-0.0803,-0.8948,0.4368,0.1433,0.0047
7254,-0.0403,-0.0840,-0.8960,0.1773,0.0822,0.0199
7264,-0.0369,-0.0808,-0.9001,-0.0060,0.1585,0.0352
7274,-0.0349,-0.0745,-0.9102,0.1162,0.0517,-0.0106
7284,-0.0378,-0.0767,-0.8853,0.4215,-0.1163,-0.0564
7294,-0.0391,-0.0847,-0.8982,0.5284,-0.1163,-0.1327
7304,-0.0393,-0.0876,-0.8999,0.2383,-0.1315,-0.1480
7314,-0.0378,-0.0793,-0.9028,-0.0518,0.0059,0.0047
7324,-0.0383,-0.0784,-0.8916,-0.1434,-0.0552,0.0657
7334,-0.0388,-0.0791,-0.8975,-0.2960,-0.0247,0.0505
7344,-0.0378,-0.0762,-0.8979,-0.3418,0.0211,0.0657
7354,-0.0371,-0.0801,-0.9004,-0.3113,0.0517,0.0199
7364,-0.0398,-0.0781,-0.9014,-0.3266,-0.0247,0.0963
7374,-0.0422,-0.0828,-0.8875,-0.4945,0.0059,0.0199
7384,-0.0457,-0.0835,-0.8933,-0.4945,-0.1010,0.0047
7394,-0.0400,-0.0791,-0.8923,-0.6624,-0.0094,-0.0717
7404,-0.0476,-0.0786,-0.8853,-0.6319,0.0364,0.0047
7414,-0.0425,-0.0735,-0.8853,-0.3724,0.0364,0.0505
7424,-0.0381,-0.0781,-0.8921,-0.0212,0.1433,0.0810
7434,-0.0308,-0.0764,-0.9053,0.3605,0.1738,0.0810
7444,-0.0327,-0.0818,-0.8936,0.5895,0.1585,0.0657
7454,-0.0396,-0.0815,-0.9053,0.3605,0.0517,0.0963
7464,-0.0312,-0.0852,-0.8816,-0.0060,0.1127,-0.0106
7474,-0.0364,-0.0745,-0.9045,-0.2960,0.0059,-0.0411
7484,-0.0366,-0.0825,-0.8931,-0.3876,0.0669,0.0047
7494,-0.0400,-0.0747,-0.8816,-0.4029,0.0211,0.0505
7504,-0.0374,-0.0808,-0.8943,0.1009,0.0975,0.0047
7514,-0.0425,-0.0754,-0.9009,0.2841,-0.0094,0.1573
7524,-0.0378,-0.0815,-0.8979,0.2689,-0.0857,0.0963
7534,-0.0344,-0.0774,-0.9048,0.0551,0.0669,0.0810
7544,-0.0432,-0.0747,-0.8923,-0.0670,0.1433,0.1115
7554,-0.0420,-0.0811,-0.8887,-0.1586,0.2196,0.0199
7564,-0.0420,-0.0891,-0.8892,-0.0212,0.2654,-0.0106
7574,-0.0449,-0.0825,-0.9016,0.0551,0.1433,0.0657
7584,-0.0383,-0.0754,-0.8972,0.0856,0.0669,0.0505
7594,-0.0378,-0.0869,-0.8928,-0.0823,-0.0399,-0.0411
7604,-0.0283,-0.0820,-0.9072,-0.3266,0.0211,-0.0106
7614,-0.0386,-0.0750,-0.9065,-0.2960,-0.0705,-0.0106
7624,-0.0376,-0.0674,-0.8735,-0.3418,-0.0247,-0.0717
7634,-0.0383,-0.0762,-0.8877,0.1315,0.0364,-0.1175
7644,-0.0430,-0.0784,-0.8850,0.2689,0.0364,-0.1175
7654,-0.0415,-0.0806,-0.9062,0.4673,0.0211,-0.0106
7664,-0.0391,-0.0874,-0.9033,0.5589,0.0975,-0.0411
7674,-0.0469,-0.0842,-0.9082,0.3757,0.0211,0.0047
7684,-0.0381,-0.0847,-0.9004,0.1009,0.1127,0.0352
7694,-0.0359,-0.0850,-0.9041,-0.3571,0.1280,0.0352
7704,-0.0322,-0.0637,-0.8784,-0.6930,0.0975,0.0657
7714,-0.0391,-0.0671,-0.8743,-0.3418,-0.0399,-0.0411
7724,-0.0430,-0.0757,-0.8889,0.2536,-0.0552,-0.1175
7734,-0.0393,-0.0840,-0.9016,0.5131,0.0517,-0.0869
7744,-0.0430,-0.0835,-0.9041,0.6963,0.0211,-0.1327
7754,-0.0437,-0.0874,-0.8906,0.7421,-0.0094,-0.0259
7764,-0.0322,-0.0981,-0.9094,0.4063,0.0364,0.0352
7774,-0.0359,-0.0764,-0.8940,-0.2350,0.0975,-0.0106
7784,-0.0364,-0.0784,-0.8911,-0.3113,-0.0705,0.0047
7794,-0.0356,-0.0771,-0.8982,-0.2502,-0.2079,-0.0564
7804,-0.0342,-0.0840,-0.8967,-0.2044,-0.0857,-0.2091
7814,-0.0403,-0.0884,-0.9041,-0.1434,-0.1010,-0.0869
7824,-0.0396,-0.0850,-0.9006,-0.1739,-0.0247,-0.0717
7834,-0.0439,-0.0840,-0.8948,-0.4640,-0.0247,0.0657
7844,-0.0422,-0.0771,-0.8933,-0.7693,-0.0857,0.2184
7854,-0.0364,-0.0720,-0.8896,-0.7998,-0.1315,0.1115
7864,-0.0337,-0.0696,-0.8931,-0.4334,-0.1163,0.0963
7874,-0.0352,-0.0771,-0.8906,-0.1434,-0.0247,0.0199
7884,-0.0361,-0.0867,-0.9097,0.0551,0.0364,-0.1022
7894,-0.0393,-0.0862,-0.8989,0.0093,0.0059,-0.0564
7904,-0.0396,-0.0786,-0.8892,-0.3418,-0.1315,0.0047
7914,-0.0413,-0.0684,-0.8884,-0.4487,-0.1621,-0.0259
7924,-0.0410,-0.0781,-0.8862,-0.3266,-0.1163,-0.0869
7934,-0.0396,-0.0696,-0.8879,-0.1281,-0.1010,-0.1480
7944,-0.0354,-0.0730,-0.8940,0.2231,-0.0705,-0.1175
7954,-0.0364,-0.0803,-0.9001,0.5437,-0.0399,-0.1327
7964,-0.0398,-0.0854,-0.9014,0.6047,0.0059,-0.1633
7974,-0.0352,-0.0845,-0.9075,0.3910,0.0975,-0.0717
7984,-0.0381,-0.0769,-0.8945,-0.0518,-0.0094,-0.0259
7994,-0.0393,-0.0789,-0.8914,-0.3724,-0.1315,-0.0106
8004,-0.0396,-0.0784,-0.8892,-0.3724,-0.1621,-0.0106
8014,-0.0339,-0.0735,-0.8901,-0.3571,-0.0399,0.0047
8024,-0.0408,-0.0813,-0.8982,-0.0976,0.0517,0.0352
8034,-0.0425,-0.0811,-0.8896,0.2536,0.0669,0.0810
8044,-0.0337,-0.0762,-0.8865,0.2994,0.0059,0.0047
8054,-0.0383,-0.0818,-0.8921,0.3605,0.0517,0.0047
8064,-0.0366,-0.0806,-0.8962,0.2231,0.0669,-0.0259
8074,-0.0332,-0.0745,-0.8936,0.2231,-0.0247,-0.1022
8084,-0.0369,-0.0754,-0.8901,0.4215,-0.1468,-0.1022
8094,-0.0388,-0.0693,-0.8872,0.2536,-0.1773,-0.1327
8104,-0.0378,-0.0703,-0.8870,0.4368,-0.1621,-0.1480
8114,-0.0459,-0.0830,-0.8967,0.7574,-0.0857,-0.2091
8124,-0.0415,-0.0874,-0.9028,0.7879,-0.0094,-0.1785
8134,-0.0388,-0.0938,-0.9053,0.5437,0.0669,-0.0106
8144,-0.0391,-0.0920,-0.9062,-0.0976,0.0364,0.0352
8154,-0.0344,-0.0806,-0.8992,-0.7082,-0.0552,0.0810
8164,-0.0369,-0.0742,-0.8909,-1.0136,-0.1468,0.0657
8174,-0.0349,-0.0652,-0.8777,-1.0594,-0.2537,-0.0106
8184,-0.0354,-0.0671,-0.8845,-0.4182,-0.1315,0.0047
8194,-0.0479,-0.0818,-0.8992,0.3910,0.0059,-0.1022
8204,-0.0454,-0.0886,-0.9075,0.7574,0.0211,-0.0869
8214,-0.0457,-0.0874,-0.8970,0.5437,0.0211,0.0505
8224,-0.0400,-0.0872,-0.9004,0.0398,-0.0094,0.0657
8234,-0.0359,-0.0815,-0.8967,-0.4487,0.0364,0.1115
8244,-0.0378,-0.0740,-0.8955,-0.6930,-0.0247,0.2184
8254,-0.0464,-0.0649,-0.8857,-0.6319,0.0517,0.1268
8264,-0.0300,-0.0737,-0.8948,-0.3876,-0.1315,0.0199
8274,-0.0398,-0.0652,-0.8867,-0.2960,-0.1010,-0.0869
8284,-0.0474,-0.0776,-0.8877,0.0246,0.0364,-0.0564
8294,-0.0422,-0.0820,-0.9048,0.3147,0.0364,0.0047
8304,-0.0454,-0.0847,-0.8999,0.2536,0.0059,-0.0259
8314,-0.0403,-0.0803,-0.8955,0.1925,0.0517,0.2031
8324,-0.0393,-0.0811,-0.8916,0.1467,0.0364,0.0963
8334,-0.0320,-0.0659,-0.8901,0.0704,0.0669,0.0657
8344,-0.0364,-0.0720,-0.8899,0.2841,0.1127,0.0505
8354,-0.0347,-0.0776,-0.9006,0.5895,0.1891,0.0047
8364,-0.0403,-0.0798,-0.9009,0.6811,0.1738,-0.0411
8374,-0.0437,-0.0901,-0.9045,0.6963,0.0669,-0.0564
8384,-0.0417,-0.0928,-0.9055,0.4063,0.1127,-0.0259
8394,-0.0427,-0.0942,-0.8982,-0.2197,-0.0094,-0.0564
8404,-0.0396,-0.0784,-0.8979,-0.9220,0.0211,0.0963
8414,-0.0298,-0.0623,-0.8845,-1.2121,-0.0247,0.1726
8424,-0.0308,-0.0669,-0.8843,-0.5556,-0.1468,-0.0106
8434,-0.0352,-0.0789,-0.8997,0.1773,0.0669,-0.0106
8444,-0.0342,-0.0803,-0.8979,0.4215,-0.0247,-0.0411
8454,-0.0364,-0.0852,-0.8982,0.2689,0.0822,-0.0259
8464,-0.0430,-0.0938,-0.9016,0.0246,0.0211,0.0352
8474,-0.0430,-0.0835,-0.8955,-0.5250,-0.0094,0.0810
8484,-0.0374,-0.0693,-0.8833,-0.8456,0.0059,-0.0106
8494,-0.0371,-0.0730,-0.8901,-0.6472,-0.0857,0.0352
8504,-0.0386,-0.0720,-0.8904,-0.4029,-0.0552,-0.0411
8514,-0.0405,-0.0684,-0.8838,-0.0060,-0.0552,-0.0411
8524,-0.0381,-0.0808,-0.9036,0.5895,0.1127,0.0810
8534,-0.0388,-0.0872,-0.9006,0.5895,0.1433,-0.0106
8544,-0.0442,-0.0872,-0.9036,0.2689,0.1433,0.0199
8554,-0.0378,-0.0808,-0.8926,0.0093,0.0211,-0.0106
8564,-0.0425,-0.0781,-0.8921,-0.2960,-0.1773,0.0505
8574,-0.0356,-0.0696,-0.8838,-0.2350,-0.2231,0.0505
8584,-0.0352,-0.0754,-0.8914,0.0398,-0.2231,-0.0717
8594,-0.0305,-0.0823,-0.9021,0.4215,-0.1315,-0.1175
8604,-0.0386,-0.0820,-0.8984,0.5742,-0.1010,-0.1022
8614,-0.0408,-0.0823,-0.8984,0.4521,0.0669,-0.0259
8624,-0.0447,-0.0928,-0.8970,0.1009,0.1280,0.0199
8634,-0.0408,-0.0872,-0.8909,-0.2808,-0.0399,-0.0411
8644,-0.0425,-0.0686,-0.8862,-0.7082,-0.1163,0.0963
8654,-0.0352,-0.0737,-0.8887,-0.4792,-0.1468,0.0963
8664,-0.0339,-0.0771,-0.9055,-0.1281,-0.0857,-0.0106
8674,-0.0383,-0.0776,-0.8943,-0.1586,-0.1315,0.0199
8684,-0.0420,-0.0793,-0.8928,-0.0976,0.0059,0.0047
8694,-0.0422,-0.0854,-0.8899,0.0551,-0.0094,-0.0106
8704,-0.0400,-0.0867,-0.8965,-0.2960,0.0669,0.0963
8714,-0.0359,-0.0754,-0.9006,-0.4640,0.0517,0.0199
8724,-0.0381,-0.0776,-0.8967,-0.3113,-0.0705,0.0505
8734,-0.0371,-0.0747,-0.8848,-0.2502,-0.0705,0.0352
8744,-0.0374,-0.0630,-0.9197,-0.2502,0.1127,0.1421
8754,-0.0332,-0.0630,-0.9058,0.0093,0.0517,0.0047
8764,-0.0398,-0.0818,-0.8713,-0.0518,0.0822,0.0505
8774,-0.0430,-0.0869,-0.8970,0.2841,0.1585,-0.0259
8784,-0.0435,-0.0796,-0.9148,0.1925,0.1127,0.0352
8794,-0.0469,-0.0859,-0.9038,-0.0365,-0.0094,-0.0106
8804,-0.0388,-0.0815,-0.8831,-0.4029,-0.0399,0.0657
8814,-0.0374,-0.0735,-0.8801,-0.4945,0.0211,0.0352
8824,-0.0344,-0.0659,-0.8906,-0.4029,0.0517,-0.1022
8834,-0.0354,-0.0713,-0.8896,-0.1281,0.2349,-0.1022
8844,-0.0266,-0.0627,-0.9260,0.2078,0.3112,-0.0869
8854,-0.0508,-0.0942,-0.8945,0.2536,0.2502,0.0047
8864,-0.0283,-0.0972,-0.9014,-0.2350,0.1433,0.0505
8874,-0.0354,-0.0784,-0.9031,-0.7082,-0.1926,0.0657
8884,-0.0442,-0.0688,-0.8765,-1.1052,-0.0094,0.1115
8894,-0.0339,-0.0752,-0.8860,-0.9525,0.0669,0.1115
8904,-0.0283,-0.0742,-0.8901,-0.7082,0.2654,0.0199
8914,-0.0361,-0.0791,-0.9082,-0.1892,0.3570,-0.0106
8924,-0.0354,-0.0747,-0.8889,0.0246,0.1585,-0.0564
8934,-0.0405,-0.0776,-0.8799,0.1620,0.0059,-0.0717
8944,-0.0405,-0.0762,-0.8857,0.0093,-0.0399,-0.1327
8954,-0.0391,-0.0718,-0.8906,0.0246,-0.0857,-0.1938
8964,-0.0454,-0.0742,-0.8960,-0.0365,0.0364,-0.1633
8974,-0.0452,-0.0820,-0.8936,0.0704,0.0822,-0.1327
8984,-0.0461,-0.0867,-0.9099,0.0246,0.1738,-0.0869
8994,-0.0374,-0.0764,-0.8896,-0.2655,0.2044,0.0505
9004,-0.0337,-0.0730,-0.8926,-0.1892,0.1738,0.0505
9014,-0.0400,-0.0798,-0.9019,0.0246,0.1280,0.0199
9024,-0.0503,-0.0698,-0.9031,-0.0365,0.0975,-0.0869
9034,-0.0349,-0.0789,-0.8938,0.2231,0.2044,-0.1022
9044,-0.0447,-0.0835,-0.8953,0.1620,0.1127,-0.0869
9054,-0.0408,-0.0791,-0.8923,0.1467,0.1891,-0.1175
9064,-0.0454,-0.0859,-0.9048,0.1925,0.2654,-0.0106
9074,-0.0334,-0.0857,-0.8960,-0.0365,0.1127,-0.0411
9084,-0.0403,-0.0784,-0.8806,-0.5098,-0.0399,0.0505
9094,-0.0310,-0.0742,-0.9045,-0.6624,0.0364,0.0047
9104,-0.0398,-0.0730,-0.8977,-0.7082,0.0364,0.0657
9114,-0.0449,-0.0674,-0.8899,-0.6166,0.2196,0.0505
9124,-0.0396,-0.0752,-0.8867,-0.1892,0.1891,-0.0411
9134,-0.0432,-0.0713,-0.8865,0.1620,0.1127,0.0047
9144,-0.0386,-0.0796,-0.9021,0.4521,0.0517,-0.0717
9154,-0.0369,-0.0833,-0.9172,0.5284,-0.1010,-0.0717
9164,-0.0398,-0.0847,-0.9048,0.0704,-0.1010,-0.0564
9174,-0.0308,-0.0657,-0.8818,-0.4334,0.0517,-0.0106
9184,-0.0393,-0.0728,-0.8857,-0.4029,0.0975,-0.0259
9194,-0.0439,-0.0703,-0.8884,-0.2960,0.1585,-0.1327
9204,-0.0374,-0.0752,-0.8894,0.0093,0.2349,-0.1022
9214,-0.0405,-0.0923,-0.9092,0.6047,0.2654,0.0352
9224,-0.0396,-0.0925,-0.9080,0.5437,0.0517,0.0810
9234,-0.0342,-0.0762,-0.8989,0.2383,-0.1468,0.0810
9244,-0.0371,-0.0842,-0.8833,-0.0365,-0.1926,0.1268
9254,-0.0320,-0.0684,-0.8760,-0.1892,-0.1468,0.0199
9264,-0.0383,-0.0720,-0.8850,0.0398,-0.0399,-0.0717
9274,-0.0374,-0.0735,-0.8923,0.2383,0.0822,-0.0717
9284,-0.0410,-0.0811,-0.9038,0.3605,0.2044,-0.0411
9294,-0.0356,-0.0752,-0.9062,0.4521,0.1433,-0.0869
9304,-0.0369,-0.0884,-0.8931,0.6047,0.0059,0.0352
9314,-0.0327,-0.0833,-0.8904,0.3910,-0.1163,0.0352
9324,-0.0386,-0.0718,-0.8982,-0.1434,-0.1926,-0.0869
9334,-0.0334,-0.0789,-0.9080,-0.2808,-0.2537,-0.0259
9344,-0.0344,-0.0754,-0.8926,-0.4334,-0.1621,-0.1327
9354,-0.0420,-0.0762,-0.8926,-0.4334,-0.0552,-0.0259
9364,-0.0437,-0.0830,-0.8840,-0.0976,0.0822,0.0047
9374,-0.0481,-0.0876,-0.8984,-0.1281,0.1585,0.0657
9384,-0.0420,-0.0842,-0.8762,-0.3266,0.2196,0.1115
9394,-0.0366,-0.0664,-0.8936,-0.2197,0.0364,0.1573
9404,-0.0374,-0.0740,-0.8958,0.1467,0.0669,0.0352
9414,-0.0339,-0.0732,-0.8943,0.2689,0.1433,-0.0259
9424,-0.0332,-0.0718,-0.8953,0.3605,0.0822,-0.1327
9434,-0.0396,-0.0764,-0.9067,0.8032,-0.0705,-0.1633
9444,-0.0354,-0.0764,-0.8972,0.9253,-0.1315,-0.1938
9454,-0.0376,-0.0830,-0.9001,0.8185,-0.1163,-0.1327
9464,-0.0369,-0.0857,-0.9028,0.5589,-0.1773,-0.1633
9474,-0.0376,-0.0764,-0.8914,0.0704,-0.1010,0.0199
9484,-0.0364,-0.0557,-0.8840,0.3605,-0.0705,-0.0869
9494,-0.0376,-0.0671,-0.8860,1.1391,0.0517,-0.1175
9504,-0.0386,-0.0791,-0.9048,1.7803,-0.0247,-0.1633
9514,-0.0381,-0.0869,-0.8970,2.0093,-0.0247,-0.0869
9524,-0.0481,-0.0957,-0.9026,1.7803,0.1127,-0.0564
9534,-0.0417,-0.1091,-0.9106,0.9101,0.3265,0.0352
9544,-0.0459,-0.1040,-0.9082,-0.4182,0.4486,0.1268
9554,-0.0376,-0.0876,-0.8984,-1.3953,0.2807,0.1268
9564,-0.0359,-0.0857,-0.8997,-1.8227,0.1127,0.1726
9574,-0.0286,-0.0815,-0.8999,-2.1892,-0.1163,0.1421
9584,-0.0408,-0.0581,-0.8909,-2.4182,-0.1468,0.0810
9594,-0.0298,-0.0427,-0.8669,-1.8075,-0.0552,-0.0259
9604,-0.0374,-0.0693,-0.8970,0.2078,0.0975,-0.0869
9614,-0.0342,-0.0886,-0.9089,0.7727,0.3723,-0.1022
9624,-0.0498,-0.0669,-0.8816,0.8185,0.0975,-0.1633
9634,-0.0347,-0.0703,-0.8811,1.2918,-0.0247,-0.1327
9644,-0.0413,-0.0916,-0.9048,1.5055,-0.1315,-0.1785
9654,-0.0352,-0.0786,-0.8992,0.9101,-0.1773,-0.0411
9664,-0.0352,-0.0613,-0.8914,0.7269,-0.1926,-0.0869
9674,-0.0364,-0.0686,-0.8943,1.1696,-0.1773,-0.1327
9684,-0.0430,-0.0859,-0.9026,1.2765,0.0059,-0.0869
9694,-0.0369,-0.0898,-0.8982,1.0475,0.1127,0.0047
9704,-0.0479,-0.1013,-0.9060,0.5895,0.0975,-0.0411
9714,-0.0420,-0.1089,-0.9114,-0.4029,0.0364,0.0352
9724,-0.0347,-0.0688,-0.8774,-1.1357,-0.1468,0.0505
9734,-0.0405,-0.0610,-0.8743,-0.6930,-0.2537,-0.0411
9744,-0.0374,-0.0676,-0.8911,0.1467,-0.1163,-0.0564
9754,-0.0383,-0.0742,-0.9031,0.8490,0.0975,-0.0411
9764,-0.0383,-0.0801,-0.8999,1.4444,0.2349,-0.1022
9774,-0.0400,-0.0913,-0.8972,1.5666,0.2349,-0.0411
9784,-0.0388,-0.0957,-0.9072,1.3070,0.0822,-0.1022
9794,-0.0364,-0.1003,-0.9065,0.3299,-0.0857,0.0047
9804,-0.0361,-0.0862,-0.9026,-0.7846,-0.2079,0.0505
9814,-0.0310,-0.0706,-0.8943,-1.5479,-0.2079,0.0199
9824,-0.0361,-0.0579,-0.8906,-1.4716,-0.2995,-0.1327
9834,-0.0366,-0.0742,-0.8945,-0.7235,-0.2384,-0.1022
9844,-0.0464,-0.0923,-0.9031,-0.4792,-0.0705,-0.0717
9854,-0.0398,-0.0850,-0.8884,-0.8609,0.0975,0.0199
9864,-0.0437,-0.0845,-0.8967,-1.0747,0.0364,0.0199
9874,-0.0437,-0.0857,-0.8977,-1.0899,-0.0247,0.0199
9884,-0.0391,-0.0762,-0.8965,-1.0747,-0.2537,0.0505
9894,-0.0337,-0.0610,-0.8818,-0.7998,-0.2537,-0.0564
9904,-0.0352,-0.0625,-0.8904,0.1162,-0.2537,-0.1175
9914,-0.0432,-0.0767,-0.8953,0.8948,-0.1468,-0.2396
9924,-0.0383,-0.0754,-0.8923,1.1391,0.0822,-0.2396
9934,-0.0466,-0.0747,-0.8962,1.2460,0.2654,-0.1327
9944,-0.0464,-0.0730,-0.8943,1.5818,0.3876,-0.0259
9954,-0.0447,-0.0715,-0.8938,1.8414,0.5097,0.0963
9964,-0.0386,-0.0593,-0.8838,2.2841,0.5250,0.1421
9974,-0.0364,-0.0615,-0.8899,3.2307,0.4792,0.1573
9984,-0.0330,-0.0850,-0.8926,3.7803,0.2196,0.0657
9994,-0.0386,-0.0964,-0.8977,3.4292,0.1585,-0.0411
10004,-0.0337,-0.1001,-0.9036,2.4368,0.2196,-0.1633
10014,-0.0476,-0.1052,-0.9080,1.3528,0.0975,-0.2396
10024,-0.0293,-0.0876,-0.8831,0.3147,-0.0857,-0.1480
10034,-0.0444,-0.0728,-0.8950,0.3605,-0.3147,-0.0869
10044,-0.0300,-0.0579,-0.8911,0.6811,-0.3453,-0.0259
10054,-0.0356,-0.0811,-0.8975,1.4902,-0.1926,-0.1022
10064,-0.0286,-0.0698,-0.8948,2.1315,-0.1468,-0.1327
10074,-0.0320,-0.0740,-0.8843,2.8032,-0.2231,-0.1938
10084,-0.0334,-0.0798,-0.8984,3.4444,-0.1621,-0.2091
10094,-0.0327,-0.1064,-0.9092,4.0246,-0.4216,-0.3618
10104,-0.0396,-0.1084,-0.9319,3.9788,-0.1773,-0.3618
10114,-0.0435,-0.1299,-0.8975,2.6353,-0.2537,-0.1785
10124,-0.0391,-0.1384,-0.9053,0.4826,-0.1926,-0.0411
10134,-0.0378,-0.1208,-0.9077,-2.0670,-0.0094,0.0352
10144,-0.0359,-0.1118,-0.9070,-4.3876,-0.1163,0.0810
10154,-0.0449,-0.0740,-0.9680,-5.8685,-0.4063,0.0352
10164,-0.0410,-0.0786,-0.8843,-6.5098,-0.3300,-0.0106
10174,-0.0481,-0.0625,-0.9053,-6.3876,-0.5285,-0.0717
10184,-0.0347,-0.0559,-0.8813,-5.8227,-0.3911,-0.1938
10194,-0.0537,-0.0415,-0.8552,-4.2960,-0.4063,-0.1633
10204,-0.0435,-0.0493,-0.8718,-2.1892,-0.1315,-0.0106
10214,-0.0442,-0.0872,-0.9214,-0.3724,0.2807,-0.0259
10224,-0.0449,-0.1077,-0.9165,-0.1434,0.4181,0.1421
10234,-0.0320,-0.0862,-0.9036,-0.7082,0.2807,0.1879
10244,-0.0347,-0.0820,-0.8967,-1.1205,0.0975,0.2031
10254,-0.0361,-0.0837,-0.8979,-1.6548,-0.1468,0.1115
10264,-0.0369,-0.0500,-0.8674,-2.0976,-0.2842,0.0199
10274,-0.0415,-0.0603,-0.8835,-1.2121,-0.3758,-0.1175
10284,-0.0464,-0.0771,-0.8950,-0.3266,-0.0857,-0.0564
10294,-0.0496,-0.0867,-0.8918,-0.0518,0.2960,0.0810
10304,-0.0449,-0.0833,-0.9009,0.1925,0.4792,0.1421
10314,-0.0476,-0.0852,-0.8938,0.0704,0.3876,0.2184
10324,-0.0327,-0.0676,-0.8884,0.0398,0.3112,0.2489
10334,-0.0298,-0.0667,-0.8999,0.3452,0.2960,0.1879
10344,-0.0310,-0.0598,-0.8953,0.6811,0.0975,-0.0259
10354,-0.0386,-0.0593,-0.8848,1.1544,-0.0247,-0.1175
10364,-0.0337,-0.0686,-0.8779,1.5666,0.0517,-0.2091
10374,-0.0425,-0.0889,-0.9045,1.8566,0.0211,-0.3160
10384,-0.0400,-0.0959,-0.9099,1.6887,0.0364,-0.2549
10394,-0.0425,-0.0945,-0.9121,1.1696,-0.0857,-0.0869
10404,-0.0327,-0.0813,-0.9021,0.8032,-0.1621,0.0505
10414,-0.0288,-0.0828,-0.9011,0.5895,-0.1468,0.0199
10424,-0.0286,-0.0847,-0.8989,0.3605,-0.1468,-0.0106
10434,-0.0310,-0.0852,-0.9033,0.0704,-0.2689,-0.0564
10444,-0.0339,-0.0847,-0.9028,-0.2350,-0.3300,-0.1633
10454,-0.0422,-0.0894,-0.8950,-0.5403,-0.4827,-0.1938
10464,-0.0508,-0.0979,-0.9031,-0.9067,-0.5285,-0.2702
10474,-0.0496,-0.0928,-0.9080,-1.2426,-0.4674,-0.1022
10484,-0.0527,-0.0854,-0.8931,-1.5632,-0.4521,-0.0106
10494,-0.0515,-0.0710,-0.9014,-1.6548,-0.2995,0.0963
10504,-0.0508,-0.0620,-0.9131,-1.4411,-0.3147,0.1268
10514,-0.0332,-0.0774,-0.9067,-1.3800,-0.0399,0.1115
10524,-0.0312,-0.0781,-0.8794,-1.1052,-0.0552,0.0352
10534,-0.0342,-0.0640,-0.8867,-0.8304,-0.1926,0.0047
10544,-0.0381,-0.0571,-0.8833,-0.1586,-0.2995,-0.1938
10554,-0.0381,-0.0923,-0.9211,0.4826,-0.3300,-0.3007
10564,-0.0410,-0.0852,-0.9036,0.2078,-0.1773,-0.2549
10574,-0.0405,-0.0815,-0.8916,-0.1739,0.0669,-0.1480
10584,-0.0452,-0.0820,-0.8962,-0.2808,0.0059,-0.0411
10594,-0.0354,-0.0791,-0.8977,-0.6319,0.1891,-0.0106
10604,-0.0332,-0.0657,-0.8901,-0.5556,0.1433,0.0810
10614,-0.0381,-0.0713,-0.8965,0.1773,0.0059,-0.0259
10624,-0.0408,-0.0715,-0.8914,0.6047,-0.0399,-0.1327
10634,-0.0378,-0.0769,-0.8918,1.0169,-0.0094,-0.1327
10644,-0.0483,-0.0940,-0.9062,1.0627,-0.0247,-0.1785
10654,-0.0408,-0.0930,-0.9045,0.4826,-0.1163,-0.1633
10664,-0.0400,-0.0767,-0.8914,-0.0365,-0.0705,-0.0564
10674,-0.0425,-0.0769,-0.8923,-0.1892,0.0059,-0.0106
10684,-0.0354,-0.0747,-0.8940,-0.1586,0.0975,0.0657
10694,-0.0352,-0.0818,-0.9104,-0.0670,0.1433,0.0352
10704,-0.0391,-0.0864,-0.9094,-0.0212,0.0975,0.0047
10714,-0.0383,-0.0862,-0.9001,-0.4487,0.1433,-0.0106
10724,-0.0393,-0.0811,-0.8938,-0.7693,0.1127,0.0199
10734,-0.0427,-0.0796,-0.8958,-0.8151,-0.0094,0.0047
10744,-0.0417,-0.0676,-0.8831,-0.6777,-0.1468,0.0199
10754,-0.0391,-0.0652,-0.8877,-0.3113,-0.0552,0.0352
10764,-0.0405,-0.0759,-0.8877,0.4368,0.0822,0.0199
10774,-0.0352,-0.0859,-0.9033,0.8948,0.1127,0.0657
10784,-0.0396,-0.0857,-0.9075,0.6658,0.1585,-0.0106
10794,-0.0334,-0.0874,-0.9087,0.0856,0.0517,0.0810
10804,-0.0376,-0.0767,-0.9055,-0.4945,-0.0857,0.0199
10814,-0.0342,-0.0674,-0.8884,-0.6930,-0.2079,-0.0564
10824,-0.0364,-0.0710,-0.8904,-0.4334,-0.2842,-0.1022
10834,-0.0430,-0.0725,-0.9062,-0.0212,-0.2231,-0.1327
10844,-0.0469,-0.0837,-0.8989,0.2078,-0.0705,-0.1327
10854,-0.0459,-0.0815,-0.8948,0.0398,-0.0094,-0.0259
10864,-0.0427,-0.0759,-0.8962,-0.1434,0.0211,-0.0106
10874,-0.0361,-0.0774,-0.8938,-0.0976,0.0822,-0.0106
10884,-0.0378,-0.0730,-0.8889,0.0856,-0.0094,0.0047
10894,-0.0347,-0.0715,-0.8845,0.2231,-0.0094,-0.1022
10904,-0.0388,-0.0776,-0.8958,0.4063,0.0364,-0.0564
10914,-0.0444,-0.0784,-0.9026,0.5895,0.0822,-0.1175
10924,-0.0405,-0.0837,-0.8921,0.5284,0.1585,-0.1327
10934,-0.0425,-0.0791,-0.8896,0.3147,0.1433,0.0199
10944,-0.0391,-0.0730,-0.8857,0.2536,0.0822,-0.0564
10954,-0.0378,-0.0791,-0.8967,0.1467,-0.0399,0.0199
10964,-0.0349,-0.0747,-0.9026,0.0398,0.0059,0.0047
10974,-0.0344,-0.0769,-0.9055,0.1162,0.2502,-0.0106
10984,-0.0403,-0.0867,-0.8962,0.2841,0.3418,-0.0411
10994,-0.0425,-0.0874,-0.8904,0.1620,0.2654,0.0047
11004,-0.0427,-0.0859,-0.8965,-0.0823,0.1127,0.0657
11014,-0.0388,-0.0854,-0.9104,-0.4945,0.0364,0.0810
11024,-0.0354,-0.0781,-0.8999,-0.6472,0.0517,0.1268
11034,-0.0393,-0.0793,-0.8958,-0.3876,0.1433,0.1726
11044,-0.0344,-0.0747,-0.8945,-0.2197,0.1433,0.0352
11054,-0.0371,-0.0754,-0.8923,0.0246,0.1891,0.0199
11064,-0.0391,-0.0801,-0.8999,0.1009,0.1738,-0.0259
11074,-0.0354,-0.0762,-0.8943,0.0093,0.1585,0.0352
11084,-0.0427,-0.0752,-0.9023,-0.0518,0.1433,0.0810
11094,-0.0361,-0.0767,-0.8879,0.0856,0.0822,0.0047
11104,-0.0388,-0.0715,-0.8928,0.0704,-0.0552,0.0047
11114,-0.0344,-0.0676,-0.8975,0.1925,-0.0399,-0.1022
11124,-0.0361,-0.0752,-0.8972,0.4368,0.0211,-0.1175
11134,-0.0425,-0.0854,-0.9048,0.3910,-0.0094,-0.1175
11144,-0.0388,-0.0847,-0.9009,0.0856,0.0211,-0.0564
11154,-0.0383,-0.0801,-0.8984,-0.1586,-0.0705,-0.1327
11164,-0.0391,-0.0825,-0.9001,-0.3113,-0.1468,0.0047
11174,-0.0371,-0.0823,-0.8923,-0.4487,-0.2079,0.0352
11184,-0.0332,-0.0742,-0.8889,-0.3571,-0.1315,-0.0106
11194,-0.0376,-0.0818,-0.8948,-0.0976,-0.2079,-0.0717
11204,-0.0391,-0.0747,-0.8958,0.0398,-0.1163,-0.0259
11214,-0.0430,-0.0774,-0.8884,0.2383,-0.0857,-0.1022
11224,-0.0393,-0.0818,-0.8972,0.3147,-0.0857,-0.1175
11234,-0.0461,-0.0781,-0.8936,0.1315,0.0517,-0.0106
11244,-0.0432,-0.0789,-0.8958,-0.0670,0.0364,-0.0106
11254,-0.0422,-0.0779,-0.8982,-0.0518,0.0211,0.0810
11264,-0.0444,-0.0781,-0.8901,-0.3724,0.0059,0.0963
11274,-0.0400,-0.0662,-0.8792,-0.4945,0.0975,0.0352
11284,-0.0317,-0.0742,-0.8977,-0.1128,0.0822,-0.0411
11294,-0.0383,-0.0688,-0.8958,0.2383,0.0669,-0.0717
11304,-0.0347,-0.0693,-0.8853,0.4979,0.0517,-0.0564
11314,-0.0376,-0.0854,-0.8931,0.9559,0.0059,-0.0259
11324,-0.0364,-0.0911,-0.8958,0.7421,0.0364,-0.1022
11334,-0.0327,-0.0793,-0.8970,0.0704,0.0364,-0.0869
11344,-0.0391,-0.0791,-0.9011,-0.1892,0.0364,-0.0411
11354,-0.0383,-0.0854,-0.8970,-0.2655,0.0059,0.0963
11364,-0.0425,-0.0872,-0.8992,-0.3113,0.0059,0.0657
11374,-0.0388,-0.0696,-0.8860,-0.2502,-0.0094,0.0657
11384,-0.0422,-0.0759,-0.8916,0.0398,0.0517,0.0352
11394,-0.0417,-0.0911,-0.8940,0.1009,0.0517,0.1268
11404,-0.0396,-0.0803,-0.8997,0.0398,0.0822,0.0657
11414,-0.0398,-0.0823,-0.9016,-0.0823,0.0211,-0.0259
11424,-0.0471,-0.0864,-0.8979,-0.3876,-0.0705,-0.0411
11434,-0.0342,-0.0874,-0.9067,-0.7998,-0.0857,-0.0717
11444,-0.0378,-0.0757,-0.8928,-0.9678,-0.3758,-0.0564
11454,-0.0310,-0.0620,-0.8862,-1.1663,-0.4369,-0.0411
11464,-0.0454,-0.0564,-0.8972,-0.6777,-0.2537,-0.1785
11474,-0.0354,-0.0769,-0.8938,-0.0212,-0.0705,-0.1480
11484,-0.0327,-0.0703,-0.9065,0.1315,-0.1926,-0.0564
11494,-0.0378,-0.0752,-0.8777,0.2841,-0.2231,-0.0717
11504,-0.0322,-0.0854,-0.8948,0.7116,-0.0399,-0.1327
11514,-0.0386,-0.0862,-0.9092,0.4215,-0.1468,-0.1480
11524,-0.0425,-0.0793,-0.9197,0.1773,-0.3300,-0.1938
11534,-0.0442,-0.0779,-0.9014,-0.1434,-0.3911,-0.2549
11544,-0.0417,-0.0828,-0.8882,-0.3571,-0.3605,-0.1022
11554,-0.0437,-0.0779,-0.8958,-0.3418,-0.2384,-0.1175
11564,-0.0427,-0.0811,-0.8889,-0.3724,-0.1315,-0.0411
11574,-0.0479,-0.0862,-0.8889,-0.3113,-0.1010,-0.1175
11584,-0.0215,-0.0815,-0.8535,-0.4334,0.1891,-0.0259
11594,-0.0518,-0.0774,-0.9009,-0.2502,0.0364,-0.0717
11604,-0.0398,-0.0747,-0.8918,-0.1586,0.0975,0.0352
11614,-0.0430,-0.0771,-0.8904,-0.0823,0.0822,0.0963
11624,-0.0391,-0.0710,-0.8970,-0.1434,0.2502,0.1115
11634,-0.0442,-0.0789,-0.9006,-0.0670,0.2349,0.0963
11644,-0.0422,-0.0791,-0.8982,-0.0976,0.2502,0.0199
11654,-0.0352,-0.0735,-0.8940,-0.0518,0.2196,0.0963
11664,-0.0330,-0.0720,-0.8953,0.0856,0.0059,0.1115
11674,-0.0312,-0.0720,-0.8875,0.1773,-0.0094,0.0047
11684,-0.0310,-0.0767,-0.8921,0.3147,-0.0399,-0.0869
11694,-0.0359,-0.0742,-0.9001,0.4215,-0.0247,-0.1785
11704,-0.0408,-0.0818,-0.8933,0.5437,-0.0094,-0.1785
11714,-0.0464,-0.0837,-0.8953,0.6353,0.0211,-0.1480
11724,-0.0442,-0.0867,-0.8916,0.5284,0.0059,-0.1327
11734,-0.0452,-0.0850,-0.8967,0.4368,-0.0399,-0.0259
11744,-0.0496,-0.0835,-0.8914,0.2536,0.1280,-0.0717
11754,-0.0430,-0.0847,-0.8967,0.2689,0.1738,0.0505
11764,-0.0405,-0.0781,-0.8955,0.1620,0.1738,0.1115
11774,-0.0354,-0.0806,-0.8904,0.0551,0.1433,0.0657
11784,-0.0337,-0.0791,-0.9011,-0.0212,0.0211,0.0657
11794,-0.0386,-0.0801,-0.8992,-0.0976,-0.0705,0.0657
11804,-0.0366,-0.0808,-0.8943,-0.2197,-0.1010,0.0199
11814,-0.0371,-0.0706,-0.8916,-0.4945,-0.1163,0.0657
11824,-0.0359,-0.0649,-0.8887,-0.5098,-0.1163,0.0352
11834,-0.0396,-0.0713,-0.8916,-0.1434,-0.1163,0.0047
11844,-0.0371,-0.0742,-0.8992,-0.0060,-0.0247,-0.0717
11854,-0.0396,-0.0750,-0.8979,0.0398,-0.0705,-0.0411
11864,-0.0383,-0.0823,-0.8958,0.0704,-0.0857,0.0657
11874,-0.0400,-0.0737,-0.8918,0.0246,0.0211,0.0352
11884,-0.0403,-0.0808,-0.8958,0.0704,0.0975,0.0352
11894,-0.0447,-0.0828,-0.8931,-0.0365,0.0822,-0.0564
11904,-0.0400,-0.0764,-0.8931,-0.1128,0.0517,-0.0106
11914,-0.0454,-0.0776,-0.8979,-0.0365,0.1280,-0.0106
11924,-0.0388,-0.0874,-0.8965,0.0093,0.0975,-0.0106
11934,-0.0415,-0.0835,-0.8936,-0.0670,-0.0247,0.0505
11944,-0.0400,-0.0742,-0.8931,0.1315,-0.0247,0.0047
11954,-0.0381,-0.0798,-0.8928,0.3605,-0.0399,0.0047
11964,-0.0347,-0.0801,-0.9026,0.3910,0.0211,-0.0259
11974,-0.0383,-0.0779,-0.8999,0.2689,-0.0399,-0.1175
11984,-0.0383,-0.0730,-0.8989,0.1162,0.0975,-0.0106
11994,-0.0398,-0.0784,-0.8972,-0.0212,0.0822,-0.0106
12004,-0.0378,-0.0825,-0.8928,-0.2197,0.0517,0.0963
12014,-0.0393,-0.0742,-0.8943,-0.2350,-0.0857,0.0657
12024,-0.0339,-0.0701,-0.8882,-0.3266,-0.0552,0.0352
12034,-0.0330,-0.0752,-0.9062,-0.0518,0.0822,0.0199
12044,-0.0344,-0.0825,-0.9001,0.0704,0.0211,0.0810
12054,-0.0422,-0.0828,-0.8982,-0.2350,-0.0094,0.0505
12064,-0.0408,-0.0776,-0.8901,-0.6014,-0.0247,0.0352
12074,-0.0430,-0.0767,-0.8962,-0.5708,-0.0247,0.0199
12084,-0.0425,-0.0806,-0.8921,-0.4945,-0.0094,-0.0869
12094,-0.0505,-0.0830,-0.8850,-0.4945,-0.1010,-0.0106
12104,-0.0415,-0.0703,-0.8813,-0.4029,0.0975,0.0352
12114,-0.0396,-0.0745,-0.8970,0.0398,0.2196,0.0047
12124,-0.0369,-0.0803,-0.9033,0.5437,0.2654,-0.0259
12134,-0.0400,-0.0808,-0.8953,0.7421,0.0975,-0.0106
12144,-0.0381,-0.0837,-0.8889,0.4826,0.1127,0.0352
12154,-0.0364,-0.0806,-0.8979,0.0856,0.1738,0.0199
12164,-0.0352,-0.0752,-0.8989,-0.2197,0.2502,0.0047
12174,-0.0339,-0.0732,-0.8923,-0.1739,0.0822,0.0963
12184,-0.0378,-0.0757,-0.8904,-0.0823,0.1585,0.0047
12194,-0.0347,-0.0742,-0.8972,0.2383,0.1127,0.0505
12204,-0.0322,-0.0745,-0.8948,0.6353,-0.0094,-0.0106
12214,-0.0342,-0.0847,-0.9016,0.7727,-0.1315,-0.0564
12224,-0.0403,-0.0820,-0.9011,0.5742,-0.2537,-0.0717
12234,-0.0422,-0.0828,-0.8967,0.1315,-0.1926,-0.0411
12244,-0.0435,-0.0840,-0.8945,-0.1586,-0.2231,-0.1938
12254,-0.0454,-0.0842,-0.8953,-0.3876,-0.2995,-0.1480
12264,-0.0459,-0.0762,-0.8950,-0.5250,-0.2079,-0.1022
12274,-0.0417,-0.0793,-0.8953,-0.2350,-0.2231,-0.0564
12284,-0.0515,-0.0686,-0.9326,-0.0060,-0.1926,-0.0106
12294,-0.0442,-0.0896,-0.8936,-0.2350,-0.1315,-0.0564
12304,-0.0327,-0.0750,-0.8979,-0.5861,-0.1926,0.0047
12314,-0.0437,-0.0693,-0.8813,-0.6319,-0.1315,0.0505
12324,-0.0439,-0.0725,-0.8923,-0.3724,0.0364,-0.0717
12334,-0.0457,-0.0757,-0.9016,-0.2655,0.1585,-0.0259
12344,-0.0430,-0.0815,-0.8945,-0.0365,0.1280,-0.0259
12354,-0.0415,-0.0811,-0.8860,-0.0212,0.0822,0.1115
12364,-0.0366,-0.0725,-0.8931,0.0551,0.0669,0.0963
12374,-0.0327,-0.0688,-0.8845,0.1620,0.0517,0.0657
12384,-0.0339,-0.0735,-0.8960,0.4368,0.1127,0.0047
12394,-0.0330,-0.0779,-0.9011,0.8032,0.1891,0.0199
12404,-0.0347,-0.0793,-0.8967,0.9711,0.1738,-0.0106
12414,-0.0334,-0.0779,-0.9019,0.9864,0.0669,-0.1022
12424,-0.0396,-0.0889,-0.9011,0.8490,-0.1468,-0.0869
12434,-0.0413,-0.0876,-0.9019,0.6047,-0.1163,-0.1175
12444,-0.0359,-0.0830,-0.8987,0.3147,-0.0399,-0.0564
12454,-0.0342,-0.0933,-0.8977,0.1620,-0.1163,-0.0869
12464,-0.0410,-0.0879,-0.8972,-0.3113,-0.1468,-0.0411
12474,-0.0396,-0.0740,-0.8879,-0.7388,-0.0705,0.0047
12484,-0.0369,-0.0754,-0.8918,-0.6319,-0.1315,-0.0411
12494,-0.0371,-0.0774,-0.8953,-0.4487,-0.0399,0.0199
12504,-0.0388,-0.0774,-0.9014,-0.1434,-0.1010,-0.0106
12514,-0.0420,-0.0813,-0.8936,-0.0212,-0.2537,-0.0259
12524,-0.0403,-0.0791,-0.8948,-0.0823,-0.2689,-0.0106
12534,-0.0393,-0.0740,-0.8945,-0.3266,-0.1621,-0.0106
12544,-0.0376,-0.0818,-0.9033,-0.3266,-0.0552,-0.0717
12554,-0.0471,-0.0752,-0.8926,-0.4487,-0.1773,-0.0869
12564,-0.0405,-0.0662,-0.8762,-0.4640,-0.1315,0.0352
12574,-0.0405,-0.0715,-0.8870,-0.0670,0.0211,0.0352
12584,-0.0410,-0.0823,-0.9053,0.1620,0.0975,-0.0259
12594,-0.0417,-0.0735,-0.8909,0.0704,0.1127,-0.0106
12604,-0.0403,-0.0681,-0.8804,0.2383,0.0517,-0.0106
12614,-0.0369,-0.0742,-0.8887,0.4063,0.1433,-0.0259
12624,-0.0366,-0.0828,-0.9050,0.6963,0.1127,-0.0259
12634,-0.0437,-0.0867,-0.9009,0.5437,-0.1163,-0.0411
12644,-0.0371,-0.0791,-0.8918,0.3757,-0.0399,-0.0259
12654,-0.0349,-0.0811,-0.8984,0.3452,-0.0399,-0.0717
12664,-0.0352,-0.0876,-0.9043,0.1620,0.0822,-0.0564
12674,-0.0376,-0.0872,-0.9019,-0.1128,0.0517,0.0047
12684,-0.0386,-0.0835,-0.8914,-0.2502,-0.0094,0.0352
12694,-0.0378,-0.0786,-0.8867,-0.5403,0.0975,0.0199
12704,-0.0415,-0.0728,-0.8916,-0.4640,0.0364,0.0047
12714,-0.0388,-0.0813,-0.8989,-0.2808,-0.0094,0.0657
12724,-0.0396,-0.0708,-0.9001,-0.1739,-0.0247,0.0047
12734,-0.0361,-0.0806,-0.9014,-0.2044,-0.0094,0.1115
12744,-0.0371,-0.0828,-0.8962,-0.3876,0.0669,0.0047
12754,-0.0337,-0.0759,-0.8899,-0.7693,0.0059,0.0505
12764,-0.0415,-0.0691,-0.8889,-0.8304,-0.1468,0.0047
12774,-0.0410,-0.0715,-0.8843,-0.7235,-0.0857,0.0352
12784,-0.0356,-0.0789,-0.8818,-0.3724,0.1585,0.0047
12794,-0.0454,-0.0798,-0.8989,0.1162,0.1127,-0.0259
12804,-0.0369,-0.0728,-0.9114,0.2383,0.0822,0.0810
12814,-0.0378,-0.0737,-0.8801,0.2841,0.0211,0.0810
12824,-0.0325,-0.0864,-0.9001,0.5131,-0.0094,-0.0106
12834,-0.0366,-0.0857,-0.8987,0.3299,-0.0399,-0.0411
12844,-0.0396,-0.0679,-0.8889,0.1925,-0.0094,-0.1175
12854,-0.0403,-0.0771,-0.8887,0.3452,-0.0094,-0.0869
12864,-0.0405,-0.0771,-0.8884,0.4826,0.0822,-0.0869
12874,-0.0439,-0.0745,-0.9001,0.5895,0.1585,-0.0106
12884,-0.0425,-0.0833,-0.9065,0.9101,0.2960,0.0199
12894,-0.0376,-0.0840,-0.9050,0.9406,0.2349,0.0657
12904,-0.0337,-0.0884,-0.8777,0.4368,0.0975,0.0810
12914,-0.0354,-0.0750,-0.9036,0.1315,0.1280,0.0657
12924,-0.0347,-0.0752,-0.9058,-0.1128,0.0669,-0.0564
12934,-0.0391,-0.0820,-0.9009,-0.1434,-0.0094,-0.0106
12944,-0.0457,-0.0813,-0.8972,-0.1128,-0.0857,-0.0411
12954,-0.0369,-0.0779,-0.8916,-0.1892,-0.1010,-0.0411
12964,-0.0400,-0.0796,-0.8977,0.0246,-0.1010,0.0047
12974,-0.0366,-0.0835,-0.8997,0.0704,0.0059,-0.0106
12984,-0.0315,-0.0811,-0.9031,-0.0823,-0.0247,0.0047
12994,-0.0364,-0.0759,-0.8955,-0.2350,-0.1926,0.1115
13004,-0.0344,-0.0796,-0.8965,-0.1281,-0.2231,-0.0411
13014,-0.0361,-0.0813,-0.8955,-0.3266,-0.1468,-0.1175
13024,-0.0422,-0.0774,-0.8914,-0.4029,-0.2231,-0.0564
13034,-0.0508,-0.0752,-0.8921,-0.2350,-0.2995,-0.0869
13044,-0.0435,-0.0784,-0.8962,-0.0518,-0.2231,-0.0869
13054,-0.0452,-0.0808,-0.8982,-0.0365,-0.0094,0.0352
13064,-0.0400,-0.0813,-0.8958,0.0551,0.0059,0.0199
13074,-0.0378,-0.0713,-0.8914,0.0551,0.0669,0.0199
13084,-0.0391,-0.0745,-0.8923,0.0398,0.1738,-0.0106
13094,-0.0417,-0.0728,-0.8999,0.0704,0.1127,0.0505
13104,-0.0386,-0.0752,-0.8982,0.2078,0.0364,0.0199
13114,-0.0376,-0.0840,-0.8997,0.2841,0.0364,0.0199
13124,-0.0386,-0.0835,-0.9048,0.2078,-0.0399,0.0352
13134,-0.0391,-0.0823,-0.8960,-0.0670,0.0211,0.0199
13144,-0.0371,-0.0796,-0.8975,-0.1739,-0.0094,0.0199
13154,-0.0374,-0.0713,-0.8958,-0.2808,0.0059,0.0963
13164,-0.0339,-0.0664,-0.8892,-0.0670,0.0669,0.0199
13174,-0.0330,-0.0769,-0.8965,0.2078,0.1127,0.0352
13184,-0.0371,-0.0757,-0.8958,0.4368,0.0211,0.0199
13194,-0.0388,-0.0803,-0.8967,0.2078,-0.0399,0.0047
13204,-0.0386,-0.0784,-0.8914,-0.0518,-0.1163,-0.0259
13214,-0.0410,-0.0833,-0.8975,-0.3876,-0.0705,0.0047
13224,-0.0371,-0.0776,-0.8955,-0.5556,0.0669,0.0199
13234,-0.0398,-0.0740,-0.8884,-0.4182,-0.0857,0.1115
13244,-0.0396,-0.0784,-0.8958,-0.2808,0.0364,0.0047
13254,-0.0376,-0.0725,-0.8975,-0.1586,0.0211,-0.0106
13264,-0.0393,-0.0820,-0.8904,-0.0365,-0.0552,-0.0717
13274,-0.0376,-0.0823,-0.9082,0.1773,-0.1010,0.0199
13284,-0.0417,-0.0701,-0.8835,-0.1739,-0.0857,0.0199
13294,-0.0369,-0.0750,-0.8955,-0.1434,-0.1163,-0.0259
13304,-0.0400,-0.0779,-0.8916,-0.2502,-0.0552,-0.0411
13314,-0.0388,-0.0732,-0.8955,-0.1586,-0.0705,0.0505
13324,-0.0413,-0.0728,-0.8911,-0.1434,0.0975,0.0505
13334,-0.0415,-0.0837,-0.8882,0.0704,0.0364,0.0657
13344,-0.0378,-0.0762,-0.9011,-0.0212,0.0975,0.0352
13354,-0.0405,-0.0742,-0.8879,-0.1281,0.0669,0.0047
13364,-0.0410,-0.0767,-0.8911,0.0704,0.0822,-0.0106
13374,-0.0322,-0.0779,-0.9038,0.1162,0.1280,-0.0259
13384,-0.0376,-0.0850,-0.9087,0.3605,0.0669,0.0047
13394,-0.0361,-0.0830,-0.8977,0.3147,-0.1010,0.0505
13404,-0.0391,-0.0823,-0.8936,0.1009,-0.1315,0.0505
13414,-0.0349,-0.0781,-0.8958,0.0093,-0.0247,-0.0259
13424,-0.0396,-0.0820,-0.8967,-0.0518,0.0211,-0.0564
13434,-0.0398,-0.0762,-0.9006,-0.0670,0.1127,-0.0411
13444,-0.0430,-0.0803,-0.8833,-0.0212,0.0822,0.0810
13454,-0.0410,-0.0828,-0.9087,-0.0670,0.0822,-0.0411
13464,-0.0410,-0.0774,-0.8965,-0.2044,0.0364,0.0047
13474,-0.0369,-0.0786,-0.8987,-0.2960,-0.1010,0.0352
13484,-0.0369,-0.0764,-0.8982,-0.3266,-0.1010,0.0199
13494,-0.0369,-0.0762,-0.8872,-0.5403,-0.1010,-0.0869
13504,-0.0386,-0.0725,-0.8921,-0.5098,-0.0705,-0.1175
13514,-0.0381,-0.0774,-0.8901,-0.2808,-0.0552,-0.1175
13524,-0.0435,-0.0813,-0.9041,0.0398,-0.0399,-0.1022
13534,-0.0417,-0.0776,-0.8923,-0.0670,0.0364,-0.0411
13544,-0.0320,-0.0823,-0.8904,-0.1739,0.1738,0.1268
13554,-0.0430,-0.0842,-0.9075,-0.2655,0.0517,0.1115
13564,-0.0447,-0.0708,-0.8862,-0.5403,0.0059,0.0810
13574,-0.0381,-0.0667,-0.8994,-0.2044,-0.0247,0.0199
13584,-0.0430,-0.0696,-0.8801,0.1620,0.0669,-0.1175
13594,-0.0400,-0.0745,-0.8979,0.5284,0.0211,-0.0869
13604,-0.0400,-0.0781,-0.8970,0.6811,-0.0247,-0.0869
13614,-0.0437,-0.0840,-0.8892,0.7116,0.0822,-0.0869
13624,-0.0359,-0.0764,-0.9048,0.6658,0.0975,-0.1022
13634,-0.0371,-0.0779,-0.8892,0.4979,0.1738,0.0199
13644,-0.0342,-0.0837,-0.9045,0.5589,0.1433,-0.0564
13654,-0.0298,-0.0781,-0.9050,0.4979,0.1738,-0.0564
13664,-0.0339,-0.0769,-0.9104,0.4521,0.1127,-0.0564
13674,-0.0361,-0.0920,-0.9080,0.3147,-0.0247,-0.0564
13684,-0.0327,-0.0818,-0.9041,-0.0518,-0.1163,-0.0564
13694,-0.0383,-0.0813,-0.8984,-0.3876,-0.3605,-0.0106
13704,-0.0347,-0.0833,-0.8945,-0.5098,-0.5132,-0.0106
13714,-0.0361,-0.0703,-0.8906,-0.9067,-0.3453,-0.0717
13724,-0.0396,-0.0786,-0.8982,-0.7693,-0.2995,-0.0411
13734,-0.0400,-0.0752,-0.8909,-0.5708,-0.0857,-0.0564
13744,-0.0493,-0.0640,-0.8804,-0.4945,0.0059,-0.0717
13754,-0.0435,-0.0720,-0.8921,-0.1434,0.0975,0.0657
13764,-0.0405,-0.0708,-0.8906,0.0704,0.0517,-0.0411
13774,-0.0479,-0.0750,-0.8931,0.4673,0.0211,-0.0106
13784,-0.0305,-0.0764,-0.8911,0.3605,0.0059,-0.0869
13794,-0.0337,-0.0732,-0.9041,0.3299,-0.0552,-0.1480
13804,-0.0452,-0.0752,-0.8960,-0.0060,-0.0094,-0.1938
13814,-0.0371,-0.0718,-0.8889,-0.0823,0.2349,-0.1633
13824,-0.0371,-0.0754,-0.8926,0.1620,0.2807,0.0047
13834,-0.0405,-0.0750,-0.8958,0.7727,0.2960,0.0199
13844,-0.0300,-0.0808,-0.8906,1.0780,0.3570,0.1421
13854,-0.0391,-0.0786,-0.8889,1.3223,0.1585,0.0199
13864,-0.0247,-0.0913,-0.9019,1.3834,0.1738,-0.0564
13874,-0.0359,-0.0908,-0.9133,1.2612,0.2502,0.0657
13884,-0.0310,-0.0884,-0.9121,0.6200,0.2960,0.1421
13894,-0.0354,-0.0842,-0.8940,0.4215,0.1891,0.0657
13904,-0.0439,-0.0842,-0.8933,0.1162,0.0669,0.0505
13914,-0.0400,-0.0762,-0.8962,-0.1892,-0.0705,-0.0259
13924,-0.0435,-0.0789,-0.9001,-0.4182,-0.0857,-0.0259
13934,-0.0459,-0.0840,-0.9009,-0.5708,-0.2231,0.0047
13944,-0.0422,-0.0679,-0.8762,-0.8609,-0.1621,-0.0106
13954,-0.0417,-0.0735,-0.8867,-0.7998,-0.0705,-0.0106
13964,-0.0452,-0.0786,-0.8977,-0.6930,0.1433,0.0352
13974,-0.0427,-0.0752,-0.8914,-0.8762,0.3265,0.0963
13984,-0.0381,-0.0732,-0.8982,-0.7388,0.3876,0.1268
13994,-0.0388,-0.0740,-0.8877,-0.3113,0.3723,0.1268
14004,-0.0376,-0.0728,-0.8945,-0.1281,0.3723,0.1573
14014,-0.0312,-0.0710,-0.8904,0.3910,0.2196,0.1421
14024,-0.0439,-0.0793,-0.8931,0.6963,0.0211,0.0963
14034,-0.0298,-0.0725,-0.8909,0.7879,0.1280,0.0199
14044,-0.0374,-0.0786,-0.8953,0.9559,0.0822,-0.0259
14054,-0.0371,-0.0930,-0.8938,1.0627,0.1433,0.0505
14064,-0.0444,-0.0750,-0.9055,0.8948,0.1738,0.0352
14074,-0.0391,-0.0740,-0.8618,1.0017,0.2044,0.0047
14084,-0.0325,-0.0613,-0.8962,1.6887,0.1738,-0.0411
14094,-0.0320,-0.0830,-0.8999,2.2994,0.0517,-0.1022
14104,-0.0276,-0.0930,-0.8936,2.3147,-0.1468,-0.1938
14114,-0.0317,-0.1133,-0.9092,1.4902,-0.4063,-0.2396
14124,-0.0256,-0.1101,-0.9175,-0.0212,-0.6506,-0.2702
14134,-0.0349,-0.0930,-0.9053,-1.5937,-0.7117,-0.3465
14144,-0.0388,-0.0706,-0.8936,-2.6472,-0.5895,-0.2854
14154,-0.0386,-0.0396,-0.8750,-2.1892,-0.5285,-0.2702
14164,-0.0330,-0.0576,-0.8816,-0.5708,-0.3453,-0.1633
14174,-0.0430,-0.0879,-0.8667,0.8032,-0.2842,-0.0869
14184,-0.0208,-0.1094,-0.9260,0.9101,0.0822,0.0047
14194,-0.0349,-0.1196,-0.9255,0.1162,-0.1315,-0.0411
14204,-0.0366,-0.0752,-0.8960,-2.2197,-0.2384,0.0963
14214,-0.0354,-0.0576,-0.8713,-2.7693,-0.2842,0.0657
14224,-0.0449,-0.0815,-0.8958,-1.9449,-0.2995,0.0047
14234,-0.0491,-0.0747,-0.8977,-1.6853,-0.1773,0.0657
14244,-0.0483,-0.0713,-0.8757,-1.1510,0.0364,0.0657
14254,-0.0396,-0.0781,-0.8899,-0.4945,0.1585,0.0657
14264,-0.0391,-0.0769,-0.8977,-0.4945,0.0059,0.0810
14274,-0.0378,-0.0745,-0.8806,-0.7235,-0.0247,0.0047
14284,-0.0400,-0.0715,-0.8967,-0.6624,-0.1163,-0.0564
14294,-0.0388,-0.0615,-0.8933,-0.4334,-0.2384,-0.0106
14304,-0.0386,-0.0662,-0.8872,-0.0365,-0.1773,-0.0564
14314,-0.0381,-0.0728,-0.8826,0.2231,-0.0399,-0.0106
14324,-0.0454,-0.0774,-0.8950,0.4673,0.0364,0.0199
14334,-0.0388,-0.0791,-0.9150,0.5437,0.1433,0.0810
14344,-0.0417,-0.0847,-0.9045,0.2994,0.2654,0.0810
14354,-0.0364,-0.0781,-0.8909,0.0551,0.2044,0.1268
14364,-0.0386,-0.0720,-0.8989,0.1315,0.0059,0.1268
14374,-0.0330,-0.0686,-0.8945,0.1620,-0.0705,0.0199
14384,-0.0366,-0.0771,-0.8914,0.3910,-0.0705,-0.0106
14394,-0.0405,-0.0769,-0.8989,0.4063,0.0975,-0.0717
14404,-0.0410,-0.0869,-0.8984,0.3147,0.1891,-0.1022
14414,-0.0400,-0.0869,-0.9011,0.3147,0.2960,-0.0259
14424,-0.0430,-0.0842,-0.8943,0.2689,0.1127,0.0352
14434,-0.0352,-0.0774,-0.8901,0.2689,0.0364,0.0047
14444,-0.0356,-0.0835,-0.9011,0.2536,-0.1163,0.0352
14454,-0.0330,-0.0798,-0.9160,0.0704,-0.2231,-0.0411
14464,-0.0303,-0.0752,-0.8992,-0.0212,-0.2842,-0.0869
14474,-0.0383,-0.0808,-0.8838,-0.2044,-0.2079,-0.1022
14484,-0.0386,-0.0781,-0.8921,-0.4029,-0.1163,-0.0106
14494,-0.0435,-0.0720,-0.8887,-0.4792,0.0517,0.0047
14504,-0.0476,-0.0742,-0.8877,-0.1434,-0.0247,0.0047
14514,-0.0427,-0.0762,-0.8936,0.1162,-0.0399,0.0505
14524,-0.0393,-0.0725,-0.8950,0.2231,-0.0857,0.0963
14534,-0.0378,-0.0793,-0.8936,0.3147,-0.0399,0.1421
14544,-0.0420,-0.0784,-0.9006,0.2383,-0.0399,0.0352
14554,-0.0408,-0.0762,-0.8938,-0.0823,-0.0399,-0.0564
14564,-0.0405,-0.0715,-0.8870,-0.1586,-0.0094,-0.0564
14574,-0.0452,-0.0806,-0.8975,-0.0823,0.1433,-0.1175
14584,-0.0452,-0.0803,-0.8918,0.0856,0.1433,0.0352
14594,-0.0403,-0.0757,-0.8892,0.3757,0.1738,0.1115
14604,-0.0349,-0.0808,-0.8989,0.8032,0.1585,0.0352
14614,-0.0310,-0.0891,-0.9097,0.5131,0.2044,0.0963
14624,-0.0305,-0.0825,-0.9053,0.1467,0.1585,0.0657
14634,-0.0305,-0.0786,-0.8982,-0.3418,0.0364,0.0199
14644,-0.0339,-0.0735,-0.8894,-0.7540,-0.1163,0.0047
14654,-0.0371,-0.0698,-0.8940,-0.7082,-0.1468,-0.0869
14664,-0.0378,-0.0671,-0.8997,-0.2960,-0.1773,-0.0869
14674,-0.0444,-0.0752,-0.8862,0.0551,-0.0857,-0.1022
14684,-0.0452,-0.0825,-0.8843,0.1925,-0.0094,-0.0106
14694,-0.0378,-0.0793,-0.9028,0.2841,-0.0552,0.0505
14704,-0.0391,-0.0798,-0.9036,0.2536,-0.1315,0.0047
14714,-0.0359,-0.0710,-0.8835,0.0093,-0.1163,-0.0869
14724,-0.0383,-0.0815,-0.8967,0.1162,-0.0247,-0.1480
14734,-0.0422,-0.0825,-0.8987,0.0398,-0.0094,-0.1022
14744,-0.0415,-0.0825,-0.9041,-0.1128,-0.0705,-0.1633
14754,-0.0388,-0.0771,-0.8997,-0.2350,-0.1010,-0.0717
14764,-0.0420,-0.0718,-0.8843,-0.0976,-0.0552,0.0047
14774,-0.0359,-0.0752,-0.8994,0.1315,0.0059,0.0963
14784,-0.0378,-0.0825,-0.8992,0.3452,0.0211,0.0352
14794,-0.0334,-0.0815,-0.9038,0.1467,0.0669,0.0352
14804,-0.0342,-0.0779,-0.8889,-0.0060,-0.0552,0.0047
14814,-0.0386,-0.0723,-0.8823,-0.1434,0.0211,-0.0106
14824,-0.0410,-0.0793,-0.9001,-0.1739,0.0364,-0.1022
14834,-0.0481,-0.0825,-0.8992,-0.0518,0.0975,-0.0411
14844,-0.0464,-0.0752,-0.8838,0.1315,0.0059,0.0047
14854,-0.0437,-0.0767,-0.8884,0.4063,-0.0399,0.0199
14864,-0.0439,-0.0786,-0.8987,0.4826,0.0059,0.0810
14874,-0.0376,-0.0750,-0.8989,0.3910,0.0975,-0.0106
14884,-0.0374,-0.0857,-0.8975,0.3452,0.0059,-0.0411
14894,-0.0396,-0.0798,-0.8916,0.0246,-0.0552,-0.1175
14904,-0.0388,-0.0703,-0.8940,-0.0518,0.0059,-0.1327
14914,-0.0386,-0.0784,-0.9009,0.2536,-0.1010,-0.1480
14924,-0.0435,-0.0808,-0.8943,0.2841,-0.0552,-0.1175
14934,-0.0381,-0.0845,-0.8896,0.1925,-0.0094,0.0505
14944,-0.0393,-0.0796,-0.9011,0.1773,-0.0094,-0.0106
14954,-0.0361,-0.0842,-0.8982,0.1620,0.0669,0.0505
14964,-0.0347,-0.0771,-0.8962,-0.0212,-0.0247,0.0963
14974,-0.0330,-0.0686,-0.8940,-0.1892,-0.0552,-0.0259
14984,-0.0400,-0.0737,-0.9001,-0.1739,-0.0399,-0.0106
14994,-0.0432,-0.0815,-0.9006,-0.0823,0.0517,0.0047
15004,-0.0403,-0.0725,-0.8875,-0.0212,-0.0857,-0.0106
15014,-0.0432,-0.0774,-0.8882,0.1315,-0.1163,-0.0106
15024,-0.0435,-0.0845,-0.8899,0.1773,-0.0094,-0.0411
15034,-0.0393,-0.0850,-0.9094,0.0551,-0.0247,0.0810
15044,-0.0371,-0.0737,-0.8938,-0.1128,0.0211,0.0810
15054,-0.0347,-0.0789,-0.8940,-0.0518,0.1280,0.0047
15064,-0.0327,-0.0771,-0.8870,0.0093,0.1127,-0.0411
15074,-0.0405,-0.0730,-0.8933,0.1162,0.0059,0.0352
15084,-0.0322,-0.0752,-0.8877,0.1773,-0.0399,-0.0411
15094,-0.0383,-0.0820,-0.9045,0.4368,-0.1010,-0.0259
15104,-0.0344,-0.0830,-0.9019,0.4063,-0.0399,-0.0411
15114,-0.0396,-0.0830,-0.8979,0.2994,-0.0247,-0.0564
15124,-0.0396,-0.0859,-0.8997,0.1162,-0.0094,0.0352
15134,-0.0400,-0.0752,-0.8967,-0.1434,0.0059,0.0047
15144,-0.0398,-0.0771,-0.8958,-0.2350,-0.0094,0.0505
15154,-0.0413,-0.0715,-0.8926,-0.1586,0.0822,0.0810
15164,-0.0417,-0.0784,-0.8894,0.1467,0.1738,-0.0106
15174,-0.0427,-0.0798,-0.8862,0.4673,0.2349,-0.0411
15184,-0.0425,-0.0869,-0.8994,0.6200,0.2044,0.0199
15194,-0.0396,-0.0813,-0.9014,0.3452,0.0211,-0.0106
15204,-0.0364,-0.0779,-0.8945,-0.1128,-0.0399,0.0047
15214,-0.0344,-0.0681,-0.8921,-0.3876,0.0975,0.0810
15224,-0.0371,-0.0713,-0.8911,-0.1892,0.1127,0.0657
15234,-0.0383,-0.0688,-0.8870,0.2383,0.0669,-0.1022
15244,-0.0386,-0.0811,-0.8999,0.4673,0.1891,-0.0106
15254,-0.0388,-0.0801,-0.9023,0.4368,0.2349,-0.0259
15264,-0.0361,-0.0847,-0.9009,0.2231,0.1891,0.0352
15274,-0.0383,-0.0862,-0.8960,-0.0060,0.0364,0.0352
15284,-0.0386,-0.0767,-0.8877,-0.2808,-0.0552,0.0963
15294,-0.0364,-0.0713,-0.8899,-0.4182,-0.1163,0.0047
15304,-0.0398,-0.0769,-0.8977,-0.2502,-0.1621,-0.0106
15314,-0.0427,-0.0818,-0.8916,-0.1892,0.0211,-0.0259
15324,-0.0435,-0.0830,-0.9014,-0.1892,0.0669,0.0657
15334,-0.0439,-0.0762,-0.8953,-0.2655,-0.0247,0.0047
15344,-0.0410,-0.0798,-0.8950,-0.1892,0.0211,-0.0259
15354,-0.0364,-0.0796,-0.9023,-0.0670,0.0822,0.0047
15364,-0.0359,-0.0828,-0.8909,-0.2502,0.0975,-0.0106
15374,-0.0391,-0.0752,-0.8853,-0.1892,-0.0094,-0.0259
15384,-0.0354,-0.0813,-0.8975,-0.0670,0.0059,-0.0411
15394,-0.0349,-0.0735,-0.8950,-0.1128,0.0364,0.0199
15404,-0.0356,-0.0747,-0.8926,0.1315,0.0364,-0.0564
15414,-0.0396,-0.0718,-0.8906,0.2841,0.1127,0.0047
15424,-0.0347,-0.0732,-0.8933,0.3299,0.1738,0.0352
15434,-0.0366,-0.0784,-0.9009,0.3299,0.1433,0.0505
15444,-0.0354,-0.0820,-0.8992,0.2994,0.0822,0.0199
15454,-0.0354,-0.0796,-0.8945,0.1467,0.1280,0.0505
15464,-0.0405,-0.0808,-0.9011,0.0398,-0.0247,-0.0564
15474,-0.0420,-0.0803,-0.8984,-0.0823,-0.1468,-0.0106
15484,-0.0317,-0.0840,-0.9062,-0.0976,-0.2231,0.0199
15494,-0.0332,-0.0740,-0.8767,-0.0518,-0.3453,-0.1785
15504,-0.0466,-0.0820,-0.8894,0.1315,-0.3147,-0.1175
15514,-0.0403,-0.0806,-0.8977,0.2841,-0.1621,-0.1022
15524,-0.0452,-0.0869,-0.9041,0.0704,-0.0399,-0.0869
15534,-0.0408,-0.0884,-0.9023,-0.0823,0.0211,0.1115
15544,-0.0464,-0.0864,-0.8982,-0.3724,0.0517,0.1115
15554,-0.0439,-0.0786,-0.8911,-0.6472,0.0364,0.0810
15564,-0.0334,-0.0725,-0.8879,-0.6319,-0.0094,0.0810
15574,-0.0359,-0.0742,-0.8933,-0.4029,-0.0247,0.0657
15584,-0.0354,-0.0730,-0.8926,-0.1739,-0.2384,0.0352
15594,-0.0352,-0.0740,-0.8940,-0.1892,-0.2842,-0.0106
15604,-0.0381,-0.0708,-0.8906,-0.0518,-0.2079,-0.0717
15614,-0.0381,-0.0811,-0.8965,0.0093,-0.0857,-0.1022
15624,-0.0410,-0.0742,-0.8892,-0.0365,-0.0705,-0.0411
15634,-0.0432,-0.0735,-0.8867,0.1773,-0.1010,-0.0411
15644,-0.0457,-0.0767,-0.8999,0.3910,-0.0094,-0.0411
15654,-0.0422,-0.0806,-0.8945,0.3910,-0.0094,0.0199
15664,-0.0383,-0.0781,-0.8975,0.3910,0.0517,-0.0717
15674,-0.0378,-0.0718,-0.8899,0.3757,-0.0399,-0.0259
15684,-0.0366,-0.0815,-0.8926,0.5284,-0.0094,-0.0564
15694,-0.0408,-0.0896,-0.9041,0.4521,0.0059,-0.0564
15704,-0.0388,-0.0762,-0.8828,0.1009,-0.0552,-0.0259
15714,-0.0422,-0.0842,-0.8950,0.1925,0.0059,0.0047
15724,-0.0420,-0.0854,-0.8992,0.2841,-0.0705,0.0047
15734,-0.0393,-0.0771,-0.8945,-0.1739,0.0669,0.0199
15744,-0.0312,-0.0737,-0.8896,-0.0518,0.0517,0.0199
15754,-0.0342,-0.0808,-0.8889,-0.0060,0.0669,0.0199
15764,-0.0339,-0.0798,-0.8962,-0.2044,0.0669,0.0505
15774,-0.0396,-0.0823,-0.9038,-0.2502,0.0669,-0.0106
15784,-0.0388,-0.0808,-0.8965,-0.4792,0.0364,0.0047
15794,-0.0376,-0.0762,-0.8982,-0.5250,0.0517,0.0505
15804,-0.0422,-0.0771,-0.8889,-0.4182,-0.0247,0.0810
15814,-0.0383,-0.0693,-0.8806,-0.3418,-0.0399,0.0047
15824,-0.0400,-0.0720,-0.8965,-0.2044,-0.0705,0.0047
15834,-0.0371,-0.0793,-0.8982,0.1467,0.0059,0.0047
15844,-0.0359,-0.0776,-0.8975,0.2231,0.0517,-0.0259
15854,-0.0347,-0.0803,-0.8945,0.2536,0.0211,0.0047
15864,-0.0393,-0.0781,-0.8931,0.1315,-0.0705,-0.0259
15874,-0.0386,-0.0764,-0.8870,-0.0976,-0.0857,0.0047
15884,-0.0422,-0.0708,-0.8889,-0.1739,-0.0705,-0.0564
15894,-0.0449,-0.0715,-0.8918,0.0093,0.0059,-0.0106
15904,-0.0447,-0.0803,-0.8975,0.1925,0.1127,0.0352
15914,-0.0391,-0.0784,-0.8960,0.0704,0.2807,0.0047
15924,-0.0342,-0.0767,-0.8955,0.1773,0.2654,0.0963
15934,-0.0337,-0.0811,-0.8977,0.1315,0.1891,0.0657
15944,-0.0369,-0.0742,-0.8921,0.1162,0.1127,0.0352
15954,-0.0366,-0.0740,-0.8921,0.1925,0.0975,0.0047
15964,-0.0393,-0.0879,-0.9001,0.3299,0.1891,-0.0717
15974,-0.0408,-0.0784,-0.9021,0.4215,0.1433,0.0199
15984,-0.0393,-0.0842,-0.8928,0.3757,0.0517,0.0047
15994,-0.0391,-0.0820,-0.8938,0.3452,0.0822,0.0352
16004,-0.0427,-0.0808,-0.8948,0.3147,0.1280,0.0047
16014,-0.0376,-0.0803,-0.8997,0.3299,0.0517,0.0657
16024,-0.0364,-0.0823,-0.9033,0.2536,0.0364,0.0199
16034,-0.0369,-0.0840,-0.8962,0.1467,0.0517,-0.0259
16044,-0.0398,-0.0764,-0.8911,0.0551,-0.0705,-0.0564
16054,-0.0430,-0.0793,-0.8926,-0.1434,-0.0094,-0.0106
16064,-0.0432,-0.0767,-0.8938,-0.1739,-0.0247,0.0352
16074,-0.0383,-0.0764,-0.8975,0.0246,0.0211,-0.0259
16084,-0.0322,-0.0793,-0.8999,0.3299,0.0517,-0.0564
16094,-0.0317,-0.0852,-0.9080,0.3757,0.0211,0.0505
16104,-0.0334,-0.0840,-0.9041,-0.0365,-0.1163,0.0352
16114,-0.0376,-0.0813,-0.8984,-0.5250,-0.0552,0.0505
16124,-0.0339,-0.0754,-0.8955,-0.7082,-0.1163,-0.0564
16134,-0.0376,-0.0786,-0.8870,-0.6624,-0.1163,-0.0411
16144,-0.0444,-0.0720,-0.8826,-0.4945,-0.1468,-0.0717
16154,-0.0417,-0.0725,-0.8850,0.0704,-0.1621,0.0047
16164,-0.0408,-0.0796,-0.8879,0.3605,-0.0552,0.0657
16174,-0.0408,-0.0811,-0.8906,0.5131,-0.1315,-0.0564
16184,-0.0371,-0.0837,-0.8979,0.5437,-0.0705,0.0199
16194,-0.0391,-0.0820,-0.9006,0.2841,-0.1010,-0.0411
16204,-0.0415,-0.0742,-0.8853,0.0398,0.0059,-0.0106
16214,-0.0337,-0.0723,-0.8948,0.0398,0.0211,0.0505
16224,-0.0410,-0.0801,-0.8950,0.2383,-0.0094,-0.0869
16234,-0.0432,-0.0825,-0.9014,0.1162,-0.0552,-0.0106
16244,-0.0403,-0.0803,-0.8955,-0.0823,-0.1621,0.0047
16254,-0.0366,-0.0833,-0.8923,-0.0823,-0.1010,0.0047
16264,-0.0347,-0.0757,-0.8933,-0.0670,-0.0399,0.0505
16274,-0.0378,-0.0793,-0.8972,-0.0518,-0.0247,0.0047
16284,-0.0330,-0.0779,-0.8953,0.1162,0.0059,-0.0106
16294,-0.0391,-0.0806,-0.8967,0.2689,0.0059,0.0047
16304,-0.0400,-0.0815,-0.8970,0.2231,-0.0705,-0.0411
16314,-0.0381,-0.0803,-0.9009,0.2231,-0.1163,0.0047
16324,-0.0356,-0.0830,-0.8958,0.1009,0.0211,-0.0259
16334,-0.0361,-0.0818,-0.8958,-0.1128,0.0211,-0.0564
16344,-0.0347,-0.0764,-0.8928,-0.2808,-0.0399,0.0352
16354,-0.0347,-0.0767,-0.8989,-0.1434,-0.0705,-0.0106
16364,-0.0391,-0.0791,-0.8936,-0.0670,-0.1010,-0.0717
16374,-0.0369,-0.0806,-0.8931,-0.0365,-0.1926,-0.0259
16384,-0.0388,-0.0796,-0.8916,-0.1128,-0.1621,-0.0106
16394,-0.0413,-0.0818,-0.9009,-0.2350,-0.1315,-0.0717
16404,-0.0422,-0.0828,-0.9058,-0.3418,-0.1468,0.0352
16414,-0.0413,-0.0769,-0.8950,-0.4029,-0.0399,0.0047
16424,-0.0413,-0.0803,-0.9019,-0.3724,-0.0399,-0.0411
16434,-0.0400,-0.0781,-0.8894,-0.5098,-0.0705,0.0505
16444,-0.0405,-0.0750,-0.8923,-0.3571,-0.1010,0.0505
16454,-0.0398,-0.0771,-0.8914,-0.1739,-0.0399,0.0657
16464,-0.0369,-0.0740,-0.8953,-0.0212,0.0364,0.0505
16474,-0.0388,-0.0728,-0.8945,0.1467,0.0669,0.0963
16484,-0.0396,-0.0813,-0.8994,0.3299,0.1280,0.1421
16494,-0.0369,-0.0713,-0.8865,0.0856,0.0517,0.0505
16504,-0.0374,-0.0718,-0.8911,0.1620,0.0669,-0.0411
16514,-0.0420,-0.0793,-0.8936,0.2231,-0.0094,-0.0564
16524,-0.0403,-0.0791,-0.8894,0.1315,0.0211,-0.0411
16534,-0.0403,-0.0776,-0.8953,0.1009,-0.0705,-0.0564
16544,-0.0444,-0.0886,-0.8979,0.1009,0.0822,0.0199
16554,-0.0427,-0.0874,-0.8965,-0.0518,0.0975,0.0199
16564,-0.0420,-0.0791,-0.8970,-0.1434,0.1127,0.0505
16574,-0.0354,-0.0754,-0.8904,-0.2044,0.0211,0.1115
16584,-0.0366,-0.0806,-0.8948,-0.0518,0.0517,0.0657
16594,-0.0327,-0.0815,-0.8994,0.0093,0.0517,0.0199
16604,-0.0332,-0.0803,-0.8972,0.0093,0.0364,0.0047
16614,-0.0393,-0.0808,-0.9004,-0.0365,-0.0094,-0.1175
16624,-0.0396,-0.0752,-0.8970,-0.1892,-0.0247,0.0047
16634,-0.0396,-0.0728,-0.8997,-0.2808,0.0211,-0.0411
16644,-0.0396,-0.0764,-0.8975,-0.1281,-0.0094,0.0047
16654,-0.0364,-0.0693,-0.8887,-0.2044,-0.0399,0.0657
16664,-0.0364,-0.0630,-0.8806,-0.0670,-0.0705,0.0810
16674,-0.0349,-0.0725,-0.8916,0.3299,-0.0399,-0.0564
16684,-0.0393,-0.0823,-0.8989,0.2994,0.0669,-0.0869
16694,-0.0391,-0.0815,-0.8970,0.1467,0.0364,-0.0106
16704,-0.0437,-0.0842,-0.8979,-0.0365,-0.0094,-0.0717
16714,-0.0464,-0.0835,-0.8958,-0.0823,0.0059,-0.0564
16724,-0.0437,-0.0757,-0.8882,-0.0823,0.0975,0.0047
16734,-0.0393,-0.0796,-0.8928,0.3147,0.0059,0.0657
16744,-0.0393,-0.0837,-0.8882,0.5742,0.0364,-0.0564
16754,-0.0308,-0.0808,-0.8979,0.6658,0.1433,-0.0106
16764,-0.0339,-0.0884,-0.8979,0.5895,0.0364,0.0352
16774,-0.0342,-0.0852,-0.9011,0.2078,-0.0857,-0.1022
16784,-0.0354,-0.0752,-0.8950,-0.0976,-0.1010,-0.0564
16794,-0.0388,-0.0735,-0.8950,-0.1434,-0.0399,-0.0259
16804,-0.0391,-0.0798,-0.8984,0.2383,0.0364,0.0657
16814,-0.0413,-0.0881,-0.9009,0.2689,-0.0552,0.0963
16824,-0.0339,-0.0828,-0.8923,0.1009,-0.1468,0.0199
16834,-0.0310,-0.0781,-0.9001,-0.1586,-0.1468,-0.0259
16844,-0.0349,-0.0791,-0.9075,-0.4945,-0.2231,0.0199
16854,-0.0378,-0.0747,-0.8850,-0.9067,-0.1926,-0.0411
16864,-0.0481,-0.0696,-0.8877,-0.7998,-0.1773,0.1115
16874,-0.0471,-0.0732,-0.8862,-0.3266,-0.1315,-0.0411
16884,-0.0447,-0.0764,-0.8984,-0.1128,0.0211,0.0657
16894,-0.0459,-0.0752,-0.8965,0.1467,0.0975,0.0047
16904,-0.0427,-0.0842,-0.8987,0.3147,0.0975,0.0352
16914,-0.0396,-0.0764,-0.8923,0.1773,0.1280,0.1879
16924,-0.0339,-0.0771,-0.8904,0.1009,0.1738,0.0352
16934,-0.0378,-0.0793,-0.8977,0.2231,0.0822,0.0199
16944,-0.0442,-0.0754,-0.8879,0.2841,0.0669,0.0810
16954,-0.0437,-0.0713,-0.8796,0.4673,0.1891,0.0199
16964,-0.0518,-0.0879,-0.9106,0.8643,0.2502,-0.0106
16974,-0.0454,-0.0854,-0.9014,0.5742,0.3265,0.0963
16984,-0.0361,-0.0845,-0.9053,0.4979,0.2196,0.1421
16994,-0.0378,-0.0764,-0.8953,0.3299,0.1433,0.2184
17004,-0.0317,-0.0750,-0.8965,0.1467,0.1127,0.1115
17014,-0.0295,-0.0762,-0.9006,0.0551,0.0364,0.0657
17024,-0.0366,-0.0781,-0.8987,-0.0518,0.0059,-0.0411
17034,-0.0376,-0.0806,-0.8994,-0.1281,-0.0399,-0.0106
17044,-0.0425,-0.0825,-0.8948,-0.1434,0.0364,-0.0106
17054,-0.0400,-0.0823,-0.8989,-0.1128,0.0669,0.0963
17064,-0.0461,-0.0886,-0.8909,-0.1739,0.0669,0.1268
17074,-0.0381,-0.0879,-0.9026,-0.4334,0.1127,0.2031
17084,-0.0398,-0.0793,-0.8999,-0.7846,0.1127,0.2489
17094,-0.0315,-0.0715,-0.8918,-0.7846,0.2349,0.2489
17104,-0.0347,-0.0708,-0.8953,-0.4792,0.1738,0.0963
17114,-0.0303,-0.0691,-0.8960,-0.1434,-0.0247,-0.0411
17124,-0.0339,-0.0757,-0.8950,0.1162,-0.0094,-0.1327
17134,-0.0400,-0.0771,-0.9036,0.3452,-0.1010,-0.0869
17144,-0.0430,-0.0840,-0.9014,0.4979,-0.1621,-0.0564
17154,-0.0449,-0.0859,-0.9028,0.2994,-0.1621,-0.0564
17164,-0.0376,-0.0747,-0.8774,-0.2197,-0.1315,-0.0259
17174,-0.0374,-0.0684,-0.8896,-0.4182,-0.0552,0.0199
17184,-0.0403,-0.0723,-0.8835,-0.2655,-0.0094,-0.0717
17194,-0.0420,-0.0784,-0.8894,-0.0518,-0.1010,-0.0717
17204,-0.0457,-0.0879,-0.8857,0.2231,0.0975,0.0352
17214,-0.0439,-0.0857,-0.8936,0.1009,0.2196,0.0505
17224,-0.0386,-0.0798,-0.8904,-0.1434,0.2349,0.0657
17234,-0.0339,-0.0830,-0.9072,-0.1892,0.1433,0.1115
17244,-0.0376,-0.0752,-0.8813,-0.3724,0.0517,0.0810
17254,-0.0344,-0.0659,-0.8794,-0.2808,0.0364,0.1421
17264,-0.0352,-0.0657,-0.8928,0.3452,0.0059,-0.0106
17274,-0.0339,-0.0796,-0.8977,0.6200,0.0364,-0.0869
17284,-0.0356,-0.0781,-0.8989,0.8795,0.0364,-0.1175
17294,-0.0352,-0.0798,-0.8984,0.8795,-0.1468,-0.1327
17304,-0.0344,-0.0842,-0.9026,0.7421,-0.2689,-0.0869
17314,-0.0430,-0.0774,-0.9011,0.3910,-0.3911,-0.2396
17324,-0.0435,-0.0857,-0.8953,0.1467,-0.3453,-0.1785
17334,-0.0364,-0.0796,-0.8950,-0.1281,-0.3758,-0.2091
17344,-0.0427,-0.0728,-0.8818,-0.2808,-0.4674,-0.1938
17354,-0.0420,-0.0859,-0.9055,-0.0518,-0.4369,-0.1022
17364,-0.0435,-0.0889,-0.9077,-0.3266,-0.2231,-0.1175
17374,-0.0388,-0.0796,-0.8943,-0.6930,-0.0857,0.0963
17384,-0.0439,-0.0884,-0.8948,-0.6930,-0.0247,0.0810
17394,-0.0415,-0.0840,-0.8904,-0.7998,0.0822,0.0963
17404,-0.0393,-0.0737,-0.8899,-1.0136,0.1433,0.1573
17414,-0.0364,-0.0696,-0.8691,-0.6472,0.0211,0.1268
17424,-0.0166,-0.0732,-0.8752,0.0704,0.1280,0.0505
17434,-0.0352,-0.0688,-0.8977,0.4215,0.0211,-0.0869
17444,-0.0381,-0.0723,-0.8962,0.4826,0.0975,0.0199
17454,-0.0396,-0.0747,-0.8955,0.4826,0.1280,-0.0564
17464,-0.0376,-0.0789,-0.9019,0.6505,0.3112,-0.0259
17474,-0.0366,-0.0728,-0.9062,0.7116,0.1127,0.0199
17484,-0.0332,-0.0740,-0.8909,0.6353,0.1127,0.0352
17494,-0.0374,-0.0745,-0.9082,0.6200,0.0517,0.0505
17504,-0.0269,-0.0862,-0.8979,0.4826,0.0059,-0.0411
17514,-0.0347,-0.0786,-0.8997,0.3910,-0.3147,-0.0411
17524,-0.0317,-0.0857,-0.8989,0.2841,-0.2384,-0.1785
17534,-0.0366,-0.0850,-0.9092,0.2689,-0.3147,-0.1938
17544,-0.0364,-0.0945,-0.9004,0.1620,-0.2842,-0.2091
17554,-0.0398,-0.0896,-0.9077,0.0246,-0.3453,-0.1480
17564,-0.0444,-0.0781,-0.8967,-0.1892,-0.4216,-0.1175
17574,-0.0403,-0.0811,-0.8938,-0.3113,-0.4521,-0.1022
17584,-0.0417,-0.0798,-0.8987,-0.2350,-0.4674,-0.1175
17594,-0.0435,-0.0784,-0.8931,-0.2655,-0.4063,-0.1785
17604,-0.0439,-0.0752,-0.8757,-0.1586,-0.3758,-0.1175
17614,-0.0452,-0.0776,-0.9011,-0.0976,-0.1468,-0.0869
17624,-0.0562,-0.0615,-0.9194,-0.4182,-0.0705,-0.0869
17634,-0.0457,-0.0793,-0.8884,-0.2197,0.1433,-0.0717
17644,-0.0466,-0.0801,-0.9023,-0.2197,0.0059,-0.0259
17654,-0.0415,-0.0720,-0.8721,-0.4334,-0.0399,0.0657
17664,-0.0354,-0.0767,-0.8826,-0.2350,-0.0705,0.0505
17674,-0.0386,-0.0718,-0.8909,-0.3266,-0.1773,0.0047
17684,-0.0320,-0.0703,-0.8889,-0.2960,-0.1315,-0.0259
17694,-0.0386,-0.0742,-0.8955,0.1162,-0.0552,-0.1633
17704,-0.0403,-0.0742,-0.8901,0.4063,0.0364,-0.1175
17714,-0.0449,-0.0803,-0.8975,0.7574,0.0975,-0.0564
17724,-0.0405,-0.0774,-0.8928,1.1238,0.0059,-0.0259
17734,-0.0405,-0.0771,-0.8994,1.2460,-0.1315,0.0047
17744,-0.0339,-0.0884,-0.9023,1.2612,-0.1315,-0.0717
17754,-0.0337,-0.0891,-0.9045,0.9253,-0.0705,-0.0259
17764,-0.0383,-0.0884,-0.8997,0.4368,-0.0552,-0.1327
17774,-0.0435,-0.0894,-0.9036,0.0398,-0.1468,-0.1327
17784,-0.0459,-0.0796,-0.8862,-0.4487,-0.1315,-0.1327
17794,-0.0486,-0.0757,-0.8960,-0.5403,-0.1163,-0.1022
17804,-0.0425,-0.0820,-0.8967,-0.3724,-0.0705,-0.0717
17814,-0.0383,-0.0845,-0.8965,-0.2044,-0.0705,0.0352
17824,-0.0327,-0.0737,-0.8938,-0.0976,-0.1773,0.1268
17834,-0.0393,-0.0854,-0.8989,-0.2197,-0.0247,0.1421
17844,-0.0315,-0.0811,-0.9033,-0.6472,-0.0399,0.0657
17854,-0.0361,-0.0754,-0.8931,-0.9983,-0.0399,0.0352
17864,-0.0366,-0.0630,-0.8901,-1.0594,-0.1163,-0.0259
17874,-0.0432,-0.0728,-0.8801,-0.6472,-0.1010,-0.0869
17884,-0.0444,-0.0762,-0.8911,-0.0976,-0.0247,0.0047
17894,-0.0417,-0.0789,-0.8970,0.3605,0.0364,0.0505
17904,-0.0381,-0.0889,-0.9028,0.5284,0.0211,0.0352
17914,-0.0364,-0.0823,-0.8955,0.0704,-0.0399,0.0047
17924,-0.0352,-0.0764,-0.8853,-0.3876,0.0211,0.0505
17934,-0.0400,-0.0759,-0.8872,-0.4945,0.1127,0.0047
17944,-0.0447,-0.0708,-0.8926,-0.5098,0.0975,-0.0869
17954,-0.0415,-0.0732,-0.8882,-0.1281,0.1738,-0.0564
17964,-0.0496,-0.0828,-0.8958,0.3757,0.2044,-0.0106
17974,-0.0483,-0.0874,-0.8938,0.4521,0.2807,-0.0717
17984,-0.0347,-0.0776,-0.8928,0.1467,0.1127,0.0199
17994,-0.0334,-0.0781,-0.8979,0.1009,-0.0552,0.0657
18004,-0.0291,-0.0732,-0.8970,0.1162,-0.1315,0.0199
18014,-0.0315,-0.0713,-0.8950,0.3605,-0.1621,-0.1175
18024,-0.0264,-0.0786,-0.9009,0.6811,-0.1315,-0.1633
18034,-0.0303,-0.0942,-0.9097,0.7269,-0.2231,-0.2091
18044,-0.0400,-0.0876,-0.9019,0.2078,-0.2384,-0.1480
18054,-0.0452,-0.0884,-0.9016,-0.2960,-0.2231,-0.1022
18064,-0.0461,-0.0850,-0.8899,-0.6930,-0.1926,0.0199
18074,-0.0449,-0.0776,-0.8914,-0.9678,-0.1773,0.0657
18084,-0.0481,-0.0720,-0.8875,-0.9831,-0.1010,0.1115
18094,-0.0447,-0.0706,-0.8853,-0.6319,-0.0705,0.0657
18104,-0.0444,-0.0818,-0.8940,-0.3724,0.0822,-0.0106
18114,-0.0430,-0.0806,-0.8979,-0.3876,0.1433,0.0047
18124,-0.0383,-0.0798,-0.8953,-0.3876,0.0975,0.0505
18134,-0.0347,-0.0740,-0.8923,-0.4182,0.0517,0.0199
18144,-0.0383,-0.0730,-0.8894,-0.1128,0.0211,-0.0106
18154,-0.0376,-0.0759,-0.8923,0.3452,-0.0094,0.0047
18164,-0.0364,-0.0789,-0.8987,0.4063,0.0975,-0.1175
18174,-0.0359,-0.0820,-0.8962,0.2994,0.1127,-0.0869
18184,-0.0383,-0.0759,-0.8970,0.1773,0.2044,0.0199
18194,-0.0359,-0.0815,-0.9001,-0.1128,0.2349,0.0810
18204,-0.0347,-0.0681,-0.8796,-0.1739,0.0975,0.1421
18214,-0.0337,-0.0818,-0.9136,0.0704,0.0059,0.0505
18224,-0.0376,-0.0679,-0.8862,-0.0212,-0.0857,0.0199
18234,-0.0393,-0.0811,-0.8896,0.1162,-0.1163,0.0352
18244,-0.0383,-0.0825,-0.8921,0.2078,-0.0399,0.0047
18254,-0.0374,-0.0864,-0.9036,0.2231,0.0517,0.0352
18264,-0.0437,-0.0830,-0.9031,-0.0060,0.0059,0.0047
18274,-0.0398,-0.0776,-0.8806,-0.1739,-0.0552,0.0352
18284,-0.0337,-0.0786,-0.8965,-0.0365,-0.2079,-0.0564
18294,-0.0396,-0.0801,-0.9043,-0.1281,-0.2842,-0.0564
18304,-0.0366,-0.0720,-0.8948,-0.2197,-0.1315,-0.0411
18314,-0.0410,-0.0754,-0.8943,-0.0670,-0.0705,0.0047
18324,-0.0405,-0.0762,-0.9019,0.1009,0.0059,0.0047
18334,-0.0383,-0.0823,-0.9026,-0.0365,0.0364,0.0352
18344,-0.0371,-0.0830,-0.8938,-0.2808,-0.1163,0.1115
18354,-0.0366,-0.0747,-0.8940,-0.4334,-0.2384,0.0352
18364,-0.0371,-0.0713,-0.8918,-0.6777,-0.2079,0.0505
18374,-0.0325,-0.0681,-0.8887,-0.5250,-0.0857,-0.0259
18384,-0.0361,-0.0720,-0.8921,-0.1739,-0.0247,0.0047
18394,-0.0420,-0.0806,-0.8979,0.1009,-0.0399,-0.0259
18404,-0.0430,-0.0803,-0.8967,0.1162,0.0822,-0.0106
18414,-0.0400,-0.0798,-0.8879,-0.0518,0.0517,0.0047
18424,-0.0396,-0.0757,-0.8918,-0.1434,0.0517,0.0199
