timestamp_ms,ax,ay,az,gx,gy,gz
3964,1.0046,-0.0220,0.0867,0.0635,0.0601,-0.1207
3974,1.0054,-0.0227,0.0823,0.1093,0.1975,0.0320
3984,1.0100,-0.0271,0.0803,0.1093,0.4418,0.0625
3994,1.0200,-0.0273,0.0781,0.0024,0.3960,0.1236
4004,1.0049,-0.0249,0.0796,0.0330,0.1822,0.0473
4014,1.0078,-0.0259,0.0837,0.0024,-0.0010,-0.0444
4024,1.0125,-0.0227,0.0862,-0.0892,-0.1995,-0.0138
4034,1.0129,-0.0264,0.0847,-0.0892,-0.2758,0.0320
4044,1.0151,-0.0234,0.0801,-0.0281,-0.2911,-0.0596
4054,1.0120,-0.0249,0.0774,0.0482,-0.2147,-0.0902
4064,1.0063,-0.0300,0.0820,0.0788,-0.0621,-0.0138
4074,1.0171,-0.0295,0.0779,0.0635,0.0143,0.0320
4084,1.0063,-0.0303,0.0864,0.0482,-0.1537,-0.0138
4094,1.0029,-0.0305,0.0825,0.0024,-0.1079,0.0167
4104,1.0088,-0.0264,0.0869,0.0024,-0.1231,0.0320
4114,1.0122,-0.0232,0.0808,-0.0434,-0.0010,0.0473
4124,1.0171,-0.0303,0.0845,-0.0586,0.0601,-0.0749
4134,1.0093,-0.0261,0.0859,-0.0128,0.0295,-0.0291
4144,1.0059,-0.0244,0.0835,0.0482,-0.3674,-0.0138
4154,1.0100,-0.0254,0.0881,0.0024,-0.6575,-0.0138
4164,1.0107,-0.0222,0.0847,0.0635,-0.7338,0.0320
4174,1.0098,-0.0266,0.0728,0.0330,-0.5964,0.0320
4184,1.0100,-0.0247,0.0847,-0.0434,-0.0773,0.0320
4194,1.0132,-0.0269,0.0713,-0.0281,0.2433,0.1083
4204,1.0100,-0.0254,0.0771,0.0024,0.3807,0.1236
4214,1.0117,-0.0215,0.0803,-0.0739,0.5639,0.0778
4224,1.0061,-0.0283,0.0776,-0.1044,0.5028,-0.0138
4234,1.0066,-0.0259,0.0862,-0.1197,0.4265,0.0320
4244,1.0042,-0.0237,0.0830,-0.0281,0.3349,0.0473
4254,1.0125,-0.0283,0.0762,0.0177,0.1669,0.0473
4264,1.0061,-0.0261,0.0806,0.0177,0.2127,0.0015
4274,1.0173,-0.0256,0.0852,0.0330,0.1517,0.0778
4284,1.0156,-0.0261,0.0850,-0.0739,0.0753,0.0931
4294,1.0061,-0.0215,0.0774,-0.0281,-0.0315,-0.0444
4304,1.0115,-0.0244,0.0818,-0.1197,0.0753,-0.0444
4314,1.0095,-0.0222,0.0857,-0.0586,0.1364,-0.0596
4324,1.0037,-0.0220,0.0845,-0.1197,0.0906,-0.0291
4334,1.0142,-0.0232,0.0891,-0.0586,0.1211,0.0167
4344,1.0149,-0.0256,0.0842,0.0177,-0.0315,-0.0444
4354,1.0059,-0.0232,0.0793,0.0024,-0.0773,-0.0902
4364,1.0081,-0.0237,0.0833,0.0330,-0.1079,-0.1512
4374,0.9978,-0.0247,0.0815,0.0635,-0.1079,0.0473
4384,1.0027,-0.0232,0.0747,0.1093,0.0143,0.1389
4394,1.0137,-0.0239,0.0830,0.0788,0.1975,0.0473
4404,1.0242,-0.0273,0.0825,0.1093,0.3349,0.1694
4414,1.0283,-0.0300,0.0852,0.0024,0.0295,0.0778
4424,1.0073,-0.0249,0.0833,0.0024,-0.3063,-0.2276
4434,0.9998,-0.0254,0.0835,-0.0128,-0.6422,-0.2886
4444,0.9910,-0.0188,0.0845,-0.0128,-0.5811,-0.1360
4454,1.0081,-0.0266,0.0845,0.1551,-0.2453,0.1236
4464,1.0266,-0.0303,0.0781,0.2162,0.0295,0.1847
4474,1.0051,-0.0266,0.0845,0.0635,-0.0315,0.0625
4484,1.0134,-0.0281,0.0796,0.0788,-0.1842,0.0320
4494,1.0173,-0.0239,0.0784,0.0482,-0.3063,-0.0596
4504,1.0068,-0.0269,0.0759,0.0635,-0.2911,-0.0749
4514,1.0012,-0.0251,0.0781,-0.0128,-0.1231,-0.0291
4524,1.0044,-0.0229,0.0854,0.0330,0.1822,0.1694
4534,1.0029,-0.0208,0.0823,0.0177,0.3044,0.2305
4544,1.0225,-0.0273,0.0828,0.1093,0.1975,0.2763
4554,1.0205,-0.0264,0.0830,0.1704,-0.3216,0.1083
4564,1.0149,-0.0264,0.0854,0.1704,-0.6727,0.0320
4574,1.0063,-0.0249,0.0874,0.0788,-0.7644,-0.1054
4584,0.9966,-0.0242,0.0789,0.1246,-0.4895,-0.1665
4594,1.0037,-0.0259,0.0828,0.0330,-0.0773,0.0320
4604,1.0012,-0.0276,0.0845,0.0940,0.2280,0.2763
4614,1.0161,-0.0251,0.0881,0.0024,0.3807,0.2610
4624,1.0203,-0.0234,0.0859,-0.0434,0.2127,0.1389
4634,1.0144,-0.0247,0.0828,-0.0586,-0.1995,-0.0138
4644,1.0117,-0.0261,0.0769,-0.0128,-0.5506,-0.0596
4654,1.0063,-0.0261,0.0796,0.0330,-0.6269,-0.1360
4664,1.0029,-0.0276,0.0742,0.0788,-0.4437,-0.1360
4674,1.0063,-0.0293,0.0815,0.0788,0.0906,-0.0902
4684,1.0061,-0.0305,0.0793,0.0482,0.3654,0.0320
4694,1.0139,-0.0254,0.0784,-0.0586,0.3502,0.0778
4704,1.0149,-0.0239,0.0867,-0.1808,0.1059,0.0167
4714,1.0110,-0.0198,0.0864,-0.1044,-0.0163,-0.0749
4724,1.0044,-0.0242,0.0806,-0.0739,0.0601,-0.1207
4734,1.0085,-0.0232,0.0876,-0.0128,0.2433,0.0015
4744,1.0122,-0.0283,0.0786,0.0482,0.2280,0.0320
4754,1.0078,-0.0300,0.0798,0.0482,0.0143,-0.1054
4764,1.0073,-0.0259,0.0803,-0.0434,-0.1995,-0.0596
4774,0.9995,-0.0251,0.0801,-0.1044,-0.0926,0.0015
4784,1.0210,-0.0266,0.0854,-0.1197,0.2127,0.1083
4794,1.0286,-0.0276,0.0806,-0.0892,0.2280,0.1694
4804,1.0144,-0.0269,0.0852,-0.0586,0.1059,-0.0291
4814,1.0056,-0.0225,0.0864,-0.0434,-0.0621,-0.2581
4824,1.0083,-0.0261,0.0847,0.0330,-0.3979,-0.3039
4834,1.0032,-0.0254,0.0745,0.0330,-0.4895,-0.1818
4844,1.0063,-0.0261,0.0718,0.0177,-0.2147,-0.2276
4854,1.0063,-0.0276,0.0796,0.0330,0.0295,-0.1054
4864,1.0063,-0.0234,0.0752,0.0788,0.1517,0.0778
4874,1.0217,-0.0261,0.0815,-0.0586,0.0753,0.1694
4884,1.0188,-0.0259,0.0869,-0.0434,-0.1537,0.0473
4894,1.0054,-0.0237,0.0854,-0.0434,-0.1995,-0.0902
4904,0.9961,-0.0237,0.0803,-0.1044,0.0295,-0.1054
4914,1.0137,-0.0278,0.0789,0.0177,0.3654,0.0473
4924,1.0129,-0.0312,0.0845,0.0177,0.4418,0.0015
4934,1.0208,-0.0308,0.0830,0.0024,0.1822,0.0015
4944,1.0117,-0.0232,0.0828,-0.0281,-0.3063,-0.2734
4954,0.9946,-0.0234,0.0930,-0.0739,-0.2911,-0.2276
4964,1.0022,-0.0269,0.0837,-0.0281,-0.0315,-0.1665
4974,1.0107,-0.0264,0.0874,0.0635,0.3044,0.0167
4984,1.0049,-0.0264,0.0742,0.0788,0.4418,0.0320
4994,1.0098,-0.0247,0.0823,-0.0128,0.3654,0.0931
5004,1.0129,-0.0227,0.0823,-0.0586,0.0143,0.1083
5014,1.0120,-0.0242,0.0808,-0.0586,-0.1995,0.1083
5024,1.0151,-0.0217,0.0837,-0.0281,-0.0926,-0.0444
5034,1.0032,-0.0195,0.0842,-0.0586,-0.0468,-0.0596
5044,1.0012,-0.0225,0.0793,0.0635,0.2127,-0.0444
5054,1.0120,-0.0261,0.0830,-0.0128,0.4265,0.1694
5064,1.0200,-0.0300,0.0798,0.0177,0.3349,0.1083
5074,1.0159,-0.0276,0.0791,0.0024,-0.0926,0.0015
5084,1.0032,-0.0239,0.0867,-0.0281,-0.4895,-0.1054
5094,0.9829,-0.0254,0.0823,0.0177,-0.5506,-0.0902
5104,1.0073,-0.0237,0.0854,0.0330,-0.0926,0.1541
5114,1.0308,-0.0305,0.0754,0.0788,0.1975,0.3221
5124,1.0308,-0.0356,0.0811,0.1704,0.1669,0.1236
5134,1.0107,-0.0217,0.0803,0.1093,-0.2758,-0.0902
5144,0.9934,-0.0232,0.0793,-0.0281,-0.5506,-0.1818
5154,0.9980,-0.0232,0.0789,-0.0281,-0.5048,-0.0596
5164,1.0205,-0.0273,0.0781,0.0330,-0.3063,0.1389
5174,1.0166,-0.0281,0.0835,0.0482,-0.1537,0.1083
5184,1.0193,-0.0291,0.0872,0.0788,-0.1842,0.0625
5194,1.0081,-0.0251,0.0789,0.0940,-0.4590,-0.1207
5204,0.9946,-0.0229,0.0837,0.1246,-0.7338,-0.1207
5214,0.9968,-0.0266,0.0908,0.1246,-0.8407,0.0473
5224,1.0098,-0.0247,0.0757,0.0788,-0.4895,0.1999
5234,1.0120,-0.0269,0.0769,0.1246,0.0143,0.2763
5244,1.0122,-0.0271,0.0737,0.0482,0.3044,0.2763
5254,1.0117,-0.0266,0.0781,-0.0434,0.3196,0.1847
5264,1.0095,-0.0288,0.0759,-0.0434,0.1059,0.0931
5274,0.9993,-0.0239,0.0867,-0.0434,-0.0773,0.0473
5284,1.0132,-0.0251,0.0820,-0.0128,-0.1842,0.0015
5294,1.0166,-0.0288,0.0867,0.0024,-0.2147,0.0015
5304,1.0066,-0.0298,0.0840,0.0788,-0.2605,-0.1207
5314,0.9985,-0.0266,0.0830,0.1246,-0.2605,-0.0291
5324,1.0063,-0.0276,0.0798,0.1093,-0.4132,0.0015
5334,1.0188,-0.0308,0.0815,0.0635,-0.3979,-0.0138
5344,1.0203,-0.0293,0.0784,0.0330,-0.3979,-0.0291
5354,1.0171,-0.0305,0.0823,0.0177,-0.6422,-0.0902
5364,0.9949,-0.0242,0.0769,0.0177,-0.6880,-0.2581
5374,0.9939,-0.0227,0.0671,0.0024,-0.5353,-0.0596
5384,1.0186,-0.0300,0.0784,0.0788,-0.1842,0.0320
5394,1.0156,-0.0269,0.0723,0.0940,-0.1384,-0.0138
5404,1.0098,-0.0278,0.0706,0.0330,-0.3063,-0.0444
5414,1.0061,-0.0254,0.0779,-0.0892,-0.3216,-0.1360
5424,1.0012,-0.0217,0.0786,-0.0739,-0.1537,-0.0902
5434,1.0010,-0.0237,0.0764,0.0330,0.0295,0.0167
5444,1.0173,-0.0217,0.0803,0.0330,0.2280,0.0778
5454,1.0144,-0.0266,0.0879,0.0330,0.2738,0.0320
5464,1.0298,-0.0312,0.0808,-0.0281,0.1669,0.0320
5474,1.0200,-0.0286,0.0818,-0.0892,-0.0926,-0.1360
5484,1.0000,-0.0276,0.0781,-0.1197,-0.1384,-0.3497
5494,0.9797,-0.0229,0.0859,-0.0739,-0.2300,-0.2734
5504,1.0083,-0.0259,0.0789,-0.0892,-0.0163,0.0931
5514,1.0308,-0.0344,0.0789,-0.0434,0.2127,0.0778
5524,1.0273,-0.0303,0.0823,0.0788,-0.0926,0.0015
5534,1.0056,-0.0198,0.0845,-0.0586,-0.3827,-0.2581
5544,0.9983,-0.0217,0.0769,-0.0281,-0.4285,-0.3192
5554,0.9937,-0.0234,0.0833,-0.0739,-0.1842,-0.1054
5564,1.0068,-0.0208,0.0710,-0.0281,-0.0010,0.0778
5574,1.0193,-0.0269,0.0710,-0.1197,0.1975,0.1389
5584,1.0259,-0.0293,0.0769,-0.0281,0.1975,0.0320
5594,1.0103,-0.0286,0.0752,0.0024,0.0448,-0.1512
5604,1.0044,-0.0195,0.0796,-0.0739,-0.1079,-0.1207
5614,0.9978,-0.0237,0.0825,0.0330,-0.0621,-0.0596
5624,1.0056,-0.0244,0.0808,0.0635,-0.0315,0.1541
5634,1.0156,-0.0266,0.0854,0.0635,-0.0621,0.1847
5644,1.0100,-0.0256,0.0854,0.0177,-0.1079,0.1847
5654,1.0144,-0.0300,0.0833,0.0940,-0.3216,0.1236
5664,1.0129,-0.0232,0.0813,0.0940,-0.5201,0.0778
5674,1.0105,-0.0266,0.0740,0.0940,-0.5811,0.0473
5684,1.0200,-0.0298,0.0793,0.0177,-0.5659,0.0778
5694,1.0193,-0.0310,0.0786,0.0177,-0.5353,-0.0596
5704,0.9963,-0.0220,0.0728,0.0330,-0.2758,-0.0596
5714,1.0032,-0.0256,0.0752,0.0330,0.0601,0.0473
5724,1.0120,-0.0269,0.0730,0.0635,0.5181,0.1694
5734,1.0146,-0.0317,0.0728,-0.0586,0.6708,0.1847
5744,1.0193,-0.0288,0.0757,-0.1197,0.3960,0.1236
5754,1.0078,-0.0225,0.0793,-0.2266,-0.0163,-0.0444
5764,1.0088,-0.0203,0.0786,-0.1044,-0.3827,-0.1665
5774,0.9893,-0.0164,0.0876,-0.0586,-0.3979,-0.1207
5784,1.0083,-0.0242,0.0872,0.0635,-0.0621,0.1541
5794,1.0171,-0.0256,0.0767,0.1551,0.4723,0.1694
5804,1.0186,-0.0298,0.0750,0.1246,0.5334,0.1694
5814,1.0085,-0.0300,0.0806,0.0482,0.3654,0.0320
5824,1.0020,-0.0281,0.0835,0.0482,0.2433,0.0625
5834,1.0120,-0.0247,0.0869,-0.0739,0.1211,0.0473
5844,1.0154,-0.0264,0.0723,0.0177,0.0295,0.0015
5854,1.0161,-0.0269,0.0820,-0.0128,-0.1384,-0.0291
5864,1.0107,-0.0247,0.0801,0.0482,-0.2911,-0.1054
5874,1.0015,-0.0259,0.0801,0.0788,-0.2605,-0.0596
5884,1.0042,-0.0242,0.0823,0.1704,-0.0621,-0.0291
5894,1.0071,-0.0288,0.0681,0.1856,0.0906,0.0778
5904,1.0107,-0.0295,0.0671,0.0330,0.1669,0.0320
5914,1.0181,-0.0256,0.0742,0.0330,0.1975,0.1236
5924,1.0103,-0.0244,0.0757,-0.0739,0.1211,0.0167
5934,1.0203,-0.0205,0.0820,-0.1655,-0.0773,-0.0749
5944,1.0024,-0.0203,0.0825,-0.1350,-0.3827,-0.2428
5954,0.9861,-0.0205,0.0850,0.0177,-0.4590,-0.1665
5964,1.0056,-0.0239,0.0776,0.1856,-0.2300,-0.0138
5974,1.0164,-0.0281,0.0769,0.2009,0.0143,0.1236
5984,1.0181,-0.0315,0.0710,0.1398,0.0295,0.1236
5994,1.0063,-0.0232,0.0830,0.0940,-0.1537,0.0931
6004,1.0017,-0.0247,0.0833,0.0788,-0.3063,0.0931
6014,1.0039,-0.0237,0.0791,0.0024,-0.3674,0.0320
6024,1.0210,-0.0242,0.0796,-0.0434,-0.2605,0.0625
6034,1.0251,-0.0244,0.0823,0.0024,0.0143,0.0167
6044,1.0022,-0.0249,0.0837,0.0482,0.1975,-0.1818
6054,0.9985,-0.0273,0.0737,0.0482,0.0906,-0.1512
6064,1.0117,-0.0254,0.0732,0.0482,0.0295,-0.0291
6074,1.0020,-0.0249,0.0779,0.0177,-0.0773,0.0015
6084,1.0120,-0.0237,0.0745,-0.0281,-0.1384,0.1389
6094,1.0107,-0.0208,0.0847,-0.0586,-0.0468,0.1541
6104,1.0017,-0.0264,0.0703,0.0635,0.1059,0.0625
6114,1.0186,-0.0239,0.0784,0.0177,0.5334,0.0931
6124,1.0171,-0.0283,0.0793,-0.0281,0.7166,0.0320
6134,1.0132,-0.0249,0.0786,0.0024,0.3654,-0.0444
6144,1.0098,-0.0232,0.0828,-0.1044,0.0753,-0.0749
6154,1.0076,-0.0227,0.0898,-0.1197,-0.0926,-0.1360
6164,1.0051,-0.0232,0.0806,-0.0128,-0.2300,-0.0596
6174,1.0044,-0.0215,0.0769,-0.0434,-0.0773,0.0167
6184,1.0222,-0.0286,0.0811,0.0635,0.3196,0.1694
6194,1.0212,-0.0308,0.0703,0.0482,0.5486,0.1389
6204,1.0100,-0.0339,0.0703,-0.0128,0.5181,-0.0749
6214,1.0054,-0.0293,0.0784,-0.0281,0.2738,-0.1818
6224,0.9990,-0.0264,0.0767,-0.0739,-0.1689,-0.1665
6234,1.0085,-0.0242,0.0747,-0.1502,-0.2300,-0.0596
6244,1.0083,-0.0229,0.0835,-0.0739,-0.1689,0.0015
6254,1.0081,-0.0193,0.0828,-0.0128,-0.0468,0.1083
6264,1.0208,-0.0186,0.0791,0.0177,0.0601,0.0625
6274,1.0159,-0.0259,0.0747,0.0482,0.1669,-0.0138
6284,1.0044,-0.0227,0.0710,0.0024,-0.0315,-0.0902
6294,0.9961,-0.0239,0.0747,0.0788,-0.2300,-0.2123
6304,1.0154,-0.0291,0.0779,-0.0434,-0.2911,0.0320
6314,1.0254,-0.0325,0.0806,-0.0586,-0.2605,0.0320
6324,1.0208,-0.0305,0.0747,-0.1960,-0.5201,-0.0749
6334,0.9861,-0.0173,0.0845,-0.1960,-0.3369,-0.1970
6344,0.9958,-0.0215,0.0837,-0.0128,0.1669,-0.0138
6354,1.0088,-0.0239,0.0723,0.1246,0.5639,0.2457
6364,1.0217,-0.0303,0.0710,0.0940,0.6097,0.2610
6374,1.0215,-0.0276,0.0750,-0.0128,0.2738,0.2305
6384,1.0271,-0.0261,0.0833,0.0177,-0.2147,0.0015
6394,1.0112,-0.0269,0.0779,-0.0434,-0.6575,-0.2734
6404,0.9976,-0.0198,0.0842,-0.1044,-0.8560,-0.3344
6414,1.0029,-0.0200,0.0825,-0.0128,-0.6880,-0.1054
6424,1.0017,-0.0273,0.0815,0.0940,-0.4437,-0.0902
6434,0.9949,-0.0244,0.0806,0.1093,-0.2605,0.1847
6444,1.0232,-0.0291,0.0774,0.1246,0.0753,0.2610
6454,1.0281,-0.0315,0.0693,0.0635,0.1517,0.2610
6464,1.0137,-0.0315,0.0793,0.0177,0.0601,0.0473
6474,1.0105,-0.0264,0.0732,-0.0892,-0.0163,-0.0902
6484,0.9910,-0.0281,0.0706,-0.1044,0.1669,-0.2276
6494,0.9841,-0.0200,0.0791,-0.0434,0.3654,0.0167
6504,1.0176,-0.0239,0.0840,-0.1197,0.4723,0.2457
6514,1.0256,-0.0261,0.0796,-0.0739,0.4265,0.2152
6524,1.0208,-0.0278,0.0862,-0.0892,0.2127,0.0625
6534,1.0076,-0.0227,0.0847,-0.1350,-0.0315,-0.1818
6544,0.9980,-0.0237,0.0830,-0.0281,0.1059,-0.0902
6554,0.9976,-0.0261,0.0793,-0.0128,0.3196,-0.0596
6564,1.0229,-0.0283,0.0740,0.0024,0.3196,0.0473
6574,1.0181,-0.0298,0.0747,-0.0128,0.1517,0.0778
6584,1.0012,-0.0234,0.0769,-0.0739,-0.0926,-0.0749
6594,1.0046,-0.0254,0.0803,-0.0281,0.0295,-0.0138
6604,1.0144,-0.0254,0.0740,-0.0892,0.3196,0.0167
6614,1.0171,-0.0261,0.0742,-0.0434,0.5944,-0.0749
6624,1.0200,-0.0286,0.0732,-0.0739,0.5028,-0.1054
6634,1.0098,-0.0334,0.0745,-0.1502,0.1669,-0.2428
6644,0.9915,-0.0205,0.0825,-0.1197,-0.3369,-0.2734
6654,0.9961,-0.0188,0.0745,-0.0739,-0.3827,-0.1054
6664,1.0134,-0.0259,0.0813,0.0482,-0.2300,0.0320
6674,1.0181,-0.0303,0.0784,0.1704,0.0601,0.1236
6684,1.0159,-0.0195,0.0776,0.1246,0.0753,0.0778
6694,1.0134,-0.0254,0.0815,0.0024,0.0906,-0.0138
6704,1.0037,-0.0273,0.0723,-0.0892,0.0448,-0.1665
6714,1.0071,-0.0251,0.0730,-0.1197,-0.0010,0.0473
6724,1.0015,-0.0264,0.0791,-0.1502,0.1517,0.0625
6734,1.0088,-0.0259,0.0786,-0.0281,0.2127,0.1694
6744,1.0166,-0.0244,0.0786,-0.0434,0.3502,0.1389
6754,1.0295,-0.0254,0.0818,-0.0128,0.2433,0.0473
6764,1.0056,-0.0254,0.0854,0.0177,-0.1079,-0.0596
6774,0.9988,-0.0234,0.0859,0.0177,-0.3369,-0.2428
6784,1.0061,-0.0239,0.0833,0.0482,-0.2300,-0.1970
6794,1.0088,-0.0283,0.0820,0.1246,-0.0926,-0.0138
6804,1.0195,-0.0303,0.0825,0.0940,-0.1231,0.0473
6814,1.0220,-0.0300,0.0801,0.0788,-0.3979,-0.0749
6824,0.9983,-0.0234,0.0828,0.1093,-0.7491,-0.1970
6834,1.0017,-0.0259,0.0745,-0.0281,-0.8254,-0.1207
6844,1.0056,-0.0222,0.0742,0.0330,-0.6269,-0.0596
6854,1.0066,-0.0269,0.0708,0.0177,-0.4590,0.0473
6864,1.0017,-0.0229,0.0698,0.0330,-0.2147,0.1083
6874,1.0061,-0.0242,0.0732,0.0940,0.1975,0.1847
6884,1.0127,-0.0264,0.0669,0.0024,0.4723,0.1999
6894,1.0132,-0.0271,0.0681,-0.0434,0.4418,0.1694
6904,1.0078,-0.0276,0.0801,-0.1350,0.3654,0.1083
6914,1.0129,-0.0259,0.0720,-0.1655,0.3349,0.0778
6924,1.0105,-0.0269,0.0823,-0.1502,0.4112,0.0167
6934,1.0132,-0.0247,0.0815,-0.0586,0.5639,0.0473
6944,1.0144,-0.0281,0.0815,0.0177,0.7166,0.0625
6954,1.0042,-0.0295,0.0850,0.0788,0.7318,0.0015
6964,1.0171,-0.0286,0.0723,0.1093,0.7929,0.0167
6974,1.0149,-0.0273,0.0784,0.0482,0.5944,-0.0138
6984,1.0027,-0.0244,0.0842,-0.0128,0.1822,-0.0596
6994,1.0083,-0.0227,0.0825,-0.1350,-0.0926,-0.0596
7004,1.0234,-0.0264,0.0898,-0.0434,-0.1842,-0.0902
7014,1.0220,-0.0271,0.0801,0.0024,-0.3063,-0.1665
7024,1.0037,-0.0247,0.0823,0.0940,-0.5964,-0.1970
7034,1.0015,-0.0188,0.0798,0.0940,-0.7338,-0.2734
7044,0.9851,-0.0176,0.0798,0.1246,-0.5506,-0.1512
7054,1.0095,-0.0212,0.0688,0.0940,-0.1384,0.1847
7064,1.0256,-0.0283,0.0745,-0.0281,0.2280,0.2763
7074,1.0198,-0.0288,0.0720,0.0024,0.2738,0.1541
7084,1.0046,-0.0303,0.0676,-0.0434,0.2585,-0.0749
7094,1.0042,-0.0256,0.0664,-0.0892,0.1822,-0.0444
7104,1.0046,-0.0225,0.0740,-0.0281,0.1975,-0.0444
7114,1.0095,-0.0266,0.0815,0.0482,0.0906,-0.0291
7124,1.0181,-0.0259,0.0820,0.0177,-0.0468,-0.0291
7134,1.0127,-0.0269,0.0791,-0.0434,-0.1537,-0.0749
7144,1.0005,-0.0239,0.0793,0.0940,-0.0621,-0.0444
7154,1.0073,-0.0271,0.0823,0.1551,0.1975,0.0473
7164,1.0166,-0.0237,0.0764,0.0788,0.1364,0.0625
7174,1.0115,-0.0256,0.0750,0.0482,0.1211,0.0625
7184,1.0154,-0.0264,0.0852,-0.0281,0.0295,0.0473
7194,1.0173,-0.0261,0.0757,-0.0892,-0.0468,-0.0138
7204,1.0076,-0.0232,0.0732,-0.0739,-0.0468,-0.2276
7214,1.0012,-0.0283,0.0759,-0.0739,0.0601,-0.1054
7224,1.0020,-0.0210,0.0732,0.0177,0.0753,-0.0596
7234,1.0073,-0.0259,0.0791,-0.0434,0.0295,0.0015
7244,1.0115,-0.0232,0.0776,-0.0128,-0.3063,0.0625
7254,1.0137,-0.0234,0.0815,0.1093,-0.4895,-0.1054
7264,1.0076,-0.0208,0.0767,0.1398,-0.4743,-0.0749
7274,1.0044,-0.0229,0.0752,0.0635,-0.1537,-0.0596
7284,1.0103,-0.0225,0.0757,0.0482,0.2738,0.0167
7294,1.0225,-0.0286,0.0725,0.0024,0.4570,0.0625
7304,1.0137,-0.0293,0.0728,-0.0434,0.4570,0.0167
7314,1.0083,-0.0220,0.0769,-0.0434,0.2280,0.0015
7324,1.0066,-0.0249,0.0754,-0.1655,-0.0315,-0.1360
7334,0.9973,-0.0208,0.0881,-0.1044,-0.0010,-0.0596
7344,1.0134,-0.0251,0.0776,0.0330,0.1669,0.0625
7354,1.0164,-0.0254,0.0750,0.0177,0.1517,0.1236
7364,1.0186,-0.0266,0.0762,0.0024,-0.1384,-0.1360
7374,1.0015,-0.0264,0.0718,-0.0281,-0.3369,-0.1665
7384,1.0005,-0.0222,0.0745,0.0330,-0.1995,-0.0749
7394,1.0054,-0.0291,0.0771,-0.0128,0.0143,0.1236
7404,1.0081,-0.0247,0.0779,0.0024,0.2585,0.1847
7414,1.0164,-0.0278,0.0803,0.1856,0.3196,0.0931
7424,1.0137,-0.0254,0.0784,0.0940,0.1669,0.0015
7434,1.0103,-0.0264,0.0762,0.0635,0.1211,0.0625
7444,1.0112,-0.0259,0.0825,0.0482,-0.0163,-0.0291
7454,1.0056,-0.0249,0.0835,0.0330,-0.0926,-0.0444
7464,1.0017,-0.0251,0.0754,0.0177,-0.1231,-0.0138
7474,1.0029,-0.0256,0.0759,0.0330,-0.0621,0.1541
7484,1.0112,-0.0227,0.0786,0.0482,-0.0010,0.1541
7494,1.0261,-0.0276,0.0808,0.0024,0.0295,0.1236
7504,1.0242,-0.0332,0.0776,-0.0434,-0.1231,-0.0291
7514,1.0085,-0.0273,0.0898,-0.0128,-0.3063,-0.2581
7524,0.9956,-0.0195,0.0850,0.0024,-0.3979,-0.1512
7534,1.0002,-0.0259,0.0767,0.0024,-0.2147,-0.0749
7544,1.0042,-0.0273,0.0718,0.0482,-0.0315,-0.0596
7554,1.0015,-0.0237,0.0710,0.1093,0.1364,0.1389
7564,1.0081,-0.0264,0.0757,0.0788,0.1364,0.1541
7574,1.0210,-0.0298,0.0645,0.0024,-0.0468,0.1847
7584,1.0115,-0.0251,0.0681,-0.0586,-0.0468,0.1541
7594,1.0085,-0.0188,0.0786,-0.0586,-0.1079,-0.0138
7604,1.0085,-0.0222,0.0806,-0.0586,-0.0621,0.0015
7614,1.0032,-0.0212,0.0771,-0.0892,0.1669,0.0167
7624,1.0081,-0.0237,0.0825,0.0177,0.2891,0.0320
7634,1.0134,-0.0254,0.0698,-0.0281,0.2280,0.1083
7644,1.0117,-0.0300,0.0781,0.0482,0.2127,0.1083
7654,1.0151,-0.0276,0.0786,0.0024,0.2891,0.0320
7664,1.0100,-0.0276,0.0833,-0.0128,0.4112,-0.0138
7674,1.0063,-0.0271,0.0823,-0.0128,0.3044,0.0320
7684,1.0083,-0.0266,0.0771,-0.0586,0.1364,0.0167
7694,1.0229,-0.0276,0.0796,0.0482,-0.1842,0.0015
7704,1.0090,-0.0256,0.0769,0.0177,-0.4590,-0.0902
7714,1.0015,-0.0237,0.0825,0.0330,-0.7033,-0.1360
7724,0.9944,-0.0212,0.0779,0.1398,-0.7033,-0.1054
7734,1.0098,-0.0244,0.0767,0.0635,-0.4132,0.0015
7744,1.0120,-0.0283,0.0684,0.0788,-0.2605,0.0625
7754,1.0171,-0.0288,0.0667,0.0940,-0.0315,0.0167
7764,1.0054,-0.0232,0.0718,0.0635,0.1822,-0.1054
7774,1.0085,-0.0295,0.0762,-0.0434,0.1822,-0.1054
7784,1.0115,-0.0227,0.0779,-0.0434,0.1669,-0.0902
7794,1.0105,-0.0281,0.0740,-0.0128,0.0143,-0.0749
7804,1.0032,-0.0215,0.0806,-0.0434,-0.0163,-0.1207
7814,1.0056,-0.0234,0.0798,0.0024,0.1059,-0.0291
7824,1.0034,-0.0288,0.0718,0.0024,0.5028,0.0167
7834,1.0034,-0.0261,0.0752,0.0177,0.7929,0.1847
7844,1.0247,-0.0312,0.0752,-0.0434,1.0066,0.2457
7854,1.0259,-0.0295,0.0796,0.0177,0.7013,0.0931
7864,1.0122,-0.0222,0.0815,-0.0586,0.0906,-0.0902
7874,1.0002,-0.0176,0.0876,-0.0128,-0.4437,-0.1818
7884,0.9929,-0.0164,0.0815,0.0024,-0.5659,-0.1360
7894,1.0139,-0.0254,0.0776,0.0788,-0.2911,0.0015
7904,1.0146,-0.0308,0.0776,0.2009,0.0753,0.0625
7914,1.0024,-0.0278,0.0720,0.1093,0.1211,-0.0138
7924,1.0073,-0.0283,0.0698,0.0635,-0.1079,0.0015
7934,1.0039,-0.0239,0.0764,0.0024,-0.4437,0.0320
7944,1.0078,-0.0198,0.0859,0.0482,-0.8102,0.0625
7954,1.0173,-0.0215,0.0745,0.0940,-0.8712,0.0931
7964,1.0132,-0.0212,0.0867,0.1551,-0.7338,0.0625
7974,1.0037,-0.0203,0.0725,0.2009,-0.4743,0.0015
7984,0.9995,-0.0195,0.0791,0.1551,-0.0773,0.1083
7994,1.0034,-0.0271,0.0779,0.1551,0.3960,0.1999
8004,1.0139,-0.0317,0.0732,0.1551,0.2738,0.2152
8014,1.0186,-0.0273,0.0754,0.1246,0.0601,0.2152
8024,1.0205,-0.0242,0.0713,0.0788,-0.1384,0.0320
8034,1.0010,-0.0281,0.0762,0.0024,-0.2605,0.0320
8044,0.9988,-0.0176,0.0750,-0.0586,-0.0773,-0.0291
8054,1.0127,-0.0271,0.0791,-0.0128,0.5028,0.0625
8064,1.0132,-0.0295,0.0701,-0.0281,0.8540,0.1389
8074,1.0186,-0.0327,0.0764,-0.0128,0.7166,0.0320
8084,1.0051,-0.0225,0.0725,-0.0434,0.3196,-0.1207
8094,0.9944,-0.0259,0.0728,-0.0281,0.0601,-0.0444
8104,1.0195,-0.0269,0.0737,-0.0739,0.2585,0.0473
8114,1.0215,-0.0261,0.0708,-0.1044,0.3654,0.0015
8124,1.0129,-0.0273,0.0742,-0.0892,0.2127,-0.1360
8134,0.9995,-0.0254,0.0791,-0.0586,0.2127,-0.2276
8144,1.0073,-0.0229,0.0774,0.0024,0.2127,-0.1360
8154,1.0151,-0.0288,0.0798,0.0482,-0.0010,-0.1512
8164,1.0110,-0.0237,0.0769,0.0482,-0.1079,-0.1207
8174,1.0076,-0.0200,0.0767,-0.0434,-0.0773,-0.0902
8184,1.0073,-0.0269,0.0762,-0.0281,0.0448,-0.1207
8194,1.0029,-0.0244,0.0715,0.0024,0.3654,-0.0138
8204,1.0178,-0.0295,0.0713,-0.1197,0.6097,-0.0596
8214,1.0076,-0.0232,0.0806,-0.0739,0.6860,-0.0749
8224,1.0085,-0.0269,0.0752,-0.0434,0.3502,-0.1207
8234,1.0137,-0.0225,0.0803,-0.0739,-0.0468,-0.1054
8244,1.0049,-0.0227,0.0835,-0.0892,-0.2147,-0.0902
8254,0.9983,-0.0242,0.0779,0.0482,-0.2758,-0.0444
8264,1.0073,-0.0247,0.0793,0.1093,-0.0010,0.0473
8274,1.0164,-0.0291,0.0820,0.1398,0.2433,-0.0138
8284,1.0103,-0.0271,0.0750,0.0940,0.1822,0.0167
8294,1.0159,-0.0291,0.0750,0.0177,-0.0163,0.0167
8304,1.0107,-0.0269,0.0750,-0.0739,-0.2758,-0.0596
8314,0.9971,-0.0222,0.0750,-0.0739,-0.5353,-0.1818
8324,1.0071,-0.0234,0.0732,-0.0281,-0.3216,-0.0291
8334,1.0110,-0.0264,0.0728,-0.0128,0.1211,0.0320
8344,1.0120,-0.0254,0.0732,0.0330,0.4112,0.0473
8354,1.0100,-0.0288,0.0771,0.0177,0.2738,0.0167
8364,1.0061,-0.0190,0.0769,0.0024,0.0753,-0.1054
8374,1.0012,-0.0269,0.0776,0.0024,-0.1689,0.0015
8384,1.0122,-0.0269,0.0742,0.0024,-0.0163,0.0625
8394,1.0186,-0.0251,0.0793,0.0177,0.1669,-0.0291
8404,1.0188,-0.0273,0.0732,0.0635,0.1211,-0.1360
8414,0.9951,-0.0229,0.0820,0.0788,0.2585,-0.0902
8424,1.0005,-0.0251,0.0742,0.0482,0.1364,-0.0444
8434,1.0068,-0.0254,0.0774,0.0177,0.3654,0.0473
8444,1.0154,-0.0259,0.0793,0.0940,0.2738,0.0625
8454,1.0156,-0.0222,0.0793,0.0330,-0.0773,-0.0291
8464,1.0046,-0.0222,0.0847,-0.0128,-0.3827,-0.0596
8474,1.0056,-0.0229,0.0757,0.0330,-0.4895,-0.0138
8484,1.0112,-0.0190,0.0818,0.0788,-0.4743,0.0931
8494,1.0225,-0.0288,0.0757,0.1551,-0.2147,0.1083
8504,1.0110,-0.0271,0.0723,0.0482,-0.0621,-0.0138
8514,1.0103,-0.0273,0.0747,0.0024,0.0906,-0.0138
8524,1.0110,-0.0264,0.0764,-0.0739,0.0753,-0.0749
8534,1.0046,-0.0205,0.0769,-0.1350,-0.0468,-0.1207
8544,1.0020,-0.0237,0.0789,-0.0586,-0.1231,-0.0749
8554,1.0088,-0.0269,0.0813,0.0482,-0.1079,0.1083
8564,1.0090,-0.0291,0.0725,0.1246,0.0601,0.1083
8574,1.0151,-0.0271,0.0730,0.0940,0.1364,0.0625
8584,1.0142,-0.0269,0.0676,0.0635,0.0448,0.0015
8594,1.0103,-0.0269,0.0710,-0.0281,-0.0010,-0.0596
8604,0.9963,-0.0271,0.0713,-0.0586,0.0295,-0.0596
8614,1.0110,-0.0242,0.0732,0.0024,0.1517,-0.0596
8624,1.0222,-0.0259,0.0801,0.0330,0.2280,-0.0444
8634,1.0088,-0.0229,0.0801,-0.0434,0.0906,-0.0444
8644,1.0059,-0.0217,0.0803,-0.0434,0.0753,-0.0596
8654,1.0122,-0.0259,0.0798,-0.0128,-0.0315,-0.0444
8664,1.0042,-0.0247,0.0737,0.0330,-0.0163,-0.0596
8674,1.0161,-0.0300,0.0750,0.0177,-0.0163,-0.0291
8684,1.0144,-0.0247,0.0767,0.0024,-0.1384,-0.0138
8694,0.9934,-0.0239,0.0730,-0.0586,-0.1537,-0.0596
8704,1.0090,-0.0217,0.0732,-0.0586,0.1059,0.0778
8714,1.0237,-0.0266,0.0698,-0.0434,0.3502,0.0625
8724,1.0083,-0.0256,0.0845,-0.0128,0.1517,-0.0444
8734,1.0017,-0.0232,0.0786,-0.0128,-0.1231,-0.1054
8744,1.0071,-0.0225,0.0825,-0.0281,-0.3827,-0.1360
8754,1.0149,-0.0237,0.0789,0.0177,-0.4743,-0.0749
8764,1.0100,-0.0227,0.0803,0.0635,-0.3979,-0.0291
8774,1.0095,-0.0259,0.0752,0.0940,-0.2453,-0.0596
8784,1.0042,-0.0291,0.0754,0.0330,0.1211,0.0015
8794,1.0127,-0.0273,0.0759,0.0177,0.3044,0.0931
8804,1.0212,-0.0300,0.0732,0.0024,0.2433,0.1389
8814,1.0115,-0.0220,0.0747,-0.0892,0.0295,0.0320
8824,1.0073,-0.0225,0.0713,-0.1350,-0.0010,-0.0596
8834,1.0090,-0.0222,0.0791,-0.1502,0.1669,-0.0749
8844,1.0151,-0.0251,0.0769,-0.0892,0.3654,-0.0444
8854,1.0044,-0.0271,0.0747,0.0177,0.4418,-0.0902
8864,0.9995,-0.0256,0.0706,-0.0739,0.5334,-0.0138
8874,1.0142,-0.0305,0.0737,0.0330,0.4723,0.0931
8884,1.0217,-0.0320,0.0757,-0.0128,0.1059,0.0931
8894,1.0149,-0.0232,0.0833,-0.0892,-0.2605,-0.1207
8904,1.0103,-0.0222,0.0789,-0.0739,-0.4590,-0.2428
8914,1.0095,-0.0261,0.0813,-0.0281,-0.4590,-0.2428
8924,1.0063,-0.0269,0.0830,-0.0128,-0.3063,-0.1512
8934,1.0166,-0.0266,0.0769,0.0482,-0.2300,-0.0444
8944,1.0166,-0.0300,0.0806,0.0330,-0.3674,-0.1360
8954,1.0073,-0.0288,0.0759,-0.0739,-0.7033,-0.2276
8964,1.0042,-0.0229,0.0750,-0.0586,-0.8712,-0.2276
8974,1.0090,-0.0261,0.0688,-0.0434,-0.6117,-0.2123
8984,1.0015,-0.0205,0.0742,-0.0586,-0.2453,-0.0749
8994,1.0085,-0.0271,0.0637,-0.0281,0.1822,0.0167
9004,1.0093,-0.0249,0.0769,-0.0892,0.3196,0.0625
9014,1.0134,-0.0261,0.0627,-0.0281,0.1822,0.1236
9024,1.0137,-0.0247,0.0757,-0.0892,-0.0010,0.0778
9034,1.0117,-0.0264,0.0740,-0.0892,-0.1995,0.0015
9044,1.0115,-0.0229,0.0771,-0.0434,-0.1537,-0.1360
9054,1.0063,-0.0264,0.0767,-0.0281,-0.0163,-0.0749
9064,1.0066,-0.0261,0.0747,-0.0128,0.0448,-0.0291
9074,1.0039,-0.0198,0.0835,0.0024,0.1364,0.0015
9084,1.0044,-0.0217,0.0771,0.0788,-0.0163,0.0320
9094,1.0068,-0.0232,0.0850,-0.0128,0.0143,0.1389
9104,1.0115,-0.0266,0.0774,0.0024,0.0601,0.1389
9114,1.0234,-0.0249,0.0708,0.0482,0.0906,0.0167
9124,1.0093,-0.0264,0.0667,0.0177,-0.0010,0.0931
9134,1.0110,-0.0251,0.0728,-0.0128,-0.1231,0.0015
9144,1.0137,-0.0278,0.0720,-0.0434,-0.4132,-0.0291
9154,1.0066,-0.0237,0.0752,0.0177,-0.4590,-0.0902
9164,1.0110,-0.0244,0.0715,-0.0434,-0.1689,-0.0596
9174,1.0200,-0.0276,0.0730,0.0177,0.1059,-0.0444
9184,1.0134,-0.0273,0.0752,0.1093,0.1364,-0.0902
9194,1.0032,-0.0208,0.0798,0.0330,-0.0010,-0.1054
9204,1.0002,-0.0269,0.0791,0.0940,-0.1231,-0.0749
9214,1.0027,-0.0278,0.0781,0.0788,-0.2300,0.0015
9224,1.0059,-0.0193,0.0815,0.1246,-0.1384,0.1541
9234,1.0137,-0.0261,0.0732,0.0940,-0.0773,0.1389
9244,1.0146,-0.0254,0.0791,-0.0281,0.0753,0.0015
9254,1.0186,-0.0261,0.0737,-0.1197,0.2127,0.0015
9264,1.0110,-0.0269,0.0784,-0.0128,0.1822,0.0015
9274,0.9958,-0.0237,0.0774,0.0024,0.1364,-0.1054
9284,1.0037,-0.0249,0.0745,-0.0281,0.2433,0.0167
9294,1.0127,-0.0234,0.0759,0.0940,0.5486,0.1541
9304,1.0249,-0.0247,0.0725,0.1246,0.9608,0.1847
9314,1.0273,-0.0337,0.0718,0.0024,0.9914,0.0625
9324,1.0112,-0.0276,0.0728,0.0024,0.7471,-0.1970
9334,1.0010,-0.0261,0.0779,-0.0434,0.4570,-0.0902
9344,1.0120,-0.0264,0.0803,-0.0128,-0.0621,-0.1207
9354,1.0066,-0.0242,0.0835,-0.1350,-0.3063,-0.1512
9364,1.0103,-0.0234,0.0835,-0.0128,-0.3827,-0.0596
9374,1.0117,-0.0264,0.0872,0.0177,-0.2300,-0.0749
9384,1.0076,-0.0242,0.0803,0.1551,-0.0773,-0.1054
9394,1.0078,-0.0222,0.0745,0.1093,0.1517,-0.1207
9404,1.0142,-0.0242,0.0754,0.0482,0.2891,0.0015
9414,1.0132,-0.0286,0.0696,0.0940,0.3807,-0.0138
9424,1.0083,-0.0261,0.0718,-0.0892,0.0753,-0.0138
9434,1.0105,-0.0247,0.0671,-0.1350,-0.1689,-0.1054
9444,1.0088,-0.0217,0.0771,-0.1197,-0.2147,-0.1665
9454,0.9910,-0.0171,0.0801,-0.0739,-0.0468,-0.1512
9464,0.9988,-0.0205,0.0701,-0.0128,0.1822,0.0778
9474,1.0085,-0.0232,0.0764,0.0635,0.4265,0.2305
9484,1.0283,-0.0312,0.0720,0.1398,0.5486,0.1541
9494,1.0291,-0.0244,0.0737,0.0788,0.1669,-0.0138
9504,1.0117,-0.0242,0.0740,-0.1350,-0.1384,-0.2276
9514,0.9998,-0.0234,0.0779,-0.0892,-0.2147,-0.3650
9524,0.9980,-0.0200,0.0798,-0.1808,0.0448,-0.1970
9534,1.0051,-0.0295,0.0806,-0.0892,0.4112,0.0167
9544,1.0112,-0.0251,0.0786,-0.0739,0.6402,0.0778
9554,1.0173,-0.0259,0.0789,-0.1044,0.7471,0.2305
9564,1.0142,-0.0242,0.0686,-0.0128,0.1975,0.0778
9574,1.0144,-0.0278,0.0801,0.0330,-0.2300,-0.1818
9584,1.0076,-0.0239,0.0757,-0.0128,-0.4437,-0.2276
9594,0.9939,-0.0229,0.0771,-0.0281,-0.4132,-0.1818
9604,0.9993,-0.0283,0.0735,-0.0434,-0.0468,-0.0902
9614,1.0198,-0.0271,0.0747,-0.0586,0.2433,0.1236
9624,1.0278,-0.0305,0.0759,-0.1808,0.4723,0.0167
9634,1.0129,-0.0242,0.0781,-0.1960,0.5181,-0.1970
9644,1.0100,-0.0227,0.0818,-0.1502,0.4723,-0.3650
9654,1.0083,-0.0254,0.0837,-0.0586,0.5181,-0.2886
9664,1.0032,-0.0247,0.0811,0.0024,0.3654,-0.2886
9674,1.0002,-0.0315,0.0747,0.0482,0.1822,-0.2276
9684,1.0095,-0.0244,0.0742,0.0330,0.0448,-0.0444
9694,1.0168,-0.0269,0.0767,-0.1197,0.2738,0.0320
9704,1.0122,-0.0222,0.0754,-0.1655,0.5639,0.0320
9714,1.0166,-0.0286,0.0842,-0.2724,1.0982,-0.0138
9724,1.0156,-0.0222,0.0613,-0.1960,1.4952,-0.1818
9734,1.0061,-0.0256,0.0681,-0.3029,1.4494,-0.2428
9744,1.0042,-0.0229,0.0725,-0.1960,1.2815,-0.0749
9754,1.0024,-0.0215,0.0750,-0.2571,1.0830,-0.0902
9764,1.0168,-0.0286,0.0769,-0.1502,0.7318,-0.0596
9774,1.0149,-0.0220,0.0757,-0.0281,0.1822,-0.1360
9784,0.9993,-0.0215,0.0840,-0.0434,-0.1384,-0.2276
9794,0.9917,-0.0220,0.0901,0.0024,-0.2300,-0.1665
9804,1.0044,-0.0178,0.0916,0.0940,-0.3521,-0.0596
9814,1.0195,-0.0212,0.0825,0.2009,-0.5201,0.0778
9824,1.0208,-0.0244,0.0894,0.3536,-0.9934,0.0931
9834,1.0183,-0.0259,0.0884,0.2467,-1.3903,-0.0291
9844,1.0083,-0.0222,0.0769,0.2315,-1.3750,-0.0749
9854,0.9971,-0.0242,0.0723,0.1398,-0.8865,-0.0291
9864,1.0090,-0.0283,0.0637,0.1856,-0.1079,0.0931
9874,1.0078,-0.0320,0.0576,0.0940,0.5792,0.2152
9884,1.0173,-0.0298,0.0681,-0.0434,0.8845,0.2610
9894,1.0125,-0.0278,0.0625,-0.1502,0.7929,0.1694
9904,0.9995,-0.0237,0.0720,-0.1808,0.6250,0.0473
9914,1.0029,-0.0227,0.0803,-0.1808,0.6097,0.1236
9924,1.0115,-0.0232,0.0759,-0.1044,0.5639,0.0625
9934,1.0090,-0.0254,0.0776,0.0330,0.6708,0.0931
9944,1.0166,-0.0244,0.0774,0.1398,0.6250,0.1541
9954,1.0229,-0.0273,0.0806,0.1246,0.5639,0.0931
9964,1.0237,-0.0249,0.0820,0.1093,0.3349,0.0015
9974,1.0122,-0.0229,0.0835,0.0024,0.0143,-0.1360
9984,1.0049,-0.0200,0.0811,-0.0586,-0.1689,-0.1512
9994,1.0105,-0.0198,0.0859,-0.0128,-0.3063,-0.1360
10004,1.0208,-0.0237,0.0891,0.1246,-0.3216,0.0167
10014,1.0127,-0.0256,0.0820,0.0330,-0.3521,-0.1207
10024,1.0154,-0.0251,0.0803,0.0635,-0.6422,-0.1054
10034,0.9988,-0.0239,0.0769,0.1704,-1.0697,-0.2581
10044,0.9929,-0.0227,0.0757,0.2162,-1.0850,-0.1360
10054,1.0049,-0.0242,0.0657,0.0635,-0.9170,0.0473
10064,1.0100,-0.0249,0.0647,0.0482,-0.3521,0.1389
10074,1.0181,-0.0242,0.0652,0.0635,0.3349,0.0625
10084,1.0146,-0.0259,0.0674,-0.0434,0.7624,0.0778
10094,1.0078,-0.0234,0.0649,-0.1350,1.0219,-0.0444
10104,1.0042,-0.0242,0.0764,-0.1197,0.8845,-0.0291
10114,0.9978,-0.0190,0.0764,-0.1502,0.5792,-0.0596
10124,1.0024,-0.0200,0.0818,-0.1197,0.5486,0.0015
10134,1.0105,-0.0193,0.0916,0.0024,0.4112,0.1236
10144,1.0134,-0.0229,0.0911,0.0788,0.4265,0.1541
10154,1.0251,-0.0271,0.0820,0.0788,0.3654,0.0778
10164,1.0186,-0.0251,0.0798,0.0330,-0.0468,-0.0749
10174,1.0125,-0.0291,0.0874,-0.0281,-0.4437,-0.2428
10184,0.9978,-0.0256,0.0818,-0.0281,-0.6117,-0.2581
10194,0.9966,-0.0215,0.0757,0.0482,-0.4285,-0.1207
10204,1.0054,-0.0244,0.0759,0.0177,-0.0163,0.0473
10214,1.0176,-0.0305,0.0715,0.0482,0.2127,0.1694
10224,1.0232,-0.0325,0.0623,0.0177,0.2585,0.0625
10234,1.0168,-0.0315,0.0632,0.0177,0.0143,-0.0749
10244,1.0083,-0.0273,0.0664,-0.1044,-0.2605,-0.2276
10254,0.9988,-0.0251,0.0693,-0.1044,-0.2758,-0.2734
10264,0.9958,-0.0190,0.0691,-0.1350,-0.0773,-0.2276
10274,0.9956,-0.0229,0.0757,-0.0892,0.3044,-0.0596
10284,1.0120,-0.0251,0.0784,-0.0434,0.5792,0.0015
10294,1.0249,-0.0244,0.0801,-0.0586,0.6708,0.0473
10304,1.0242,-0.0222,0.0752,-0.1350,0.5792,-0.0749
10314,1.0125,-0.0283,0.0850,-0.0739,0.2738,-0.1512
10324,1.0029,-0.0222,0.0933,-0.2113,0.0906,-0.2886
10334,1.0032,-0.0200,0.0864,-0.1808,-0.0010,-0.1970
10344,0.9946,-0.0203,0.0898,-0.1197,-0.0163,-0.0902
10354,1.0081,-0.0210,0.0784,-0.0281,0.0906,0.1694
10364,1.0171,-0.0249,0.0771,0.0788,0.3044,0.2457
10374,1.0234,-0.0291,0.0752,0.0482,0.3960,0.1236
10384,1.0186,-0.0293,0.0701,0.0940,0.0143,-0.0596
10394,1.0061,-0.0286,0.0747,0.0330,-0.4590,-0.2276
10404,1.0010,-0.0232,0.0730,-0.0128,-0.6575,-0.2581
10414,0.9980,-0.0242,0.0730,0.0330,-0.4743,-0.1665
10424,1.0076,-0.0249,0.0735,0.0330,-0.0926,-0.1360
10434,1.0029,-0.0244,0.0723,0.0330,0.2280,0.0167
10444,1.0117,-0.0271,0.0764,0.1398,0.4418,0.0625
10454,1.0151,-0.0266,0.0742,0.0788,0.2280,0.0625
10464,1.0085,-0.0239,0.0830,0.0635,-0.2147,-0.0749
10474,1.0032,-0.0186,0.0847,0.2009,-0.5964,-0.0596
10484,1.0073,-0.0183,0.0874,0.1704,-0.4132,0.1236
10494,1.0115,-0.0195,0.0830,0.1093,-0.1384,0.1389
10504,1.0171,-0.0208,0.0852,0.1093,0.3196,0.1389
10514,1.0181,-0.0273,0.0752,0.1246,0.4723,0.1694
10524,1.0164,-0.0288,0.0786,0.0940,0.1669,0.0015
10534,1.0083,-0.0251,0.0801,-0.0434,-0.2453,-0.0902
10544,1.0000,-0.0195,0.0767,-0.0128,-0.6575,-0.1360
10554,0.9976,-0.0205,0.0732,0.0024,-0.5964,-0.0444
10564,1.0095,-0.0247,0.0701,0.1398,-0.1231,0.2457
10574,1.0110,-0.0264,0.0676,0.1093,0.2585,0.2915
10584,1.0168,-0.0288,0.0667,0.0788,0.3502,0.0931
10594,1.0129,-0.0276,0.0708,0.0940,0.1364,-0.0596
10604,0.9995,-0.0283,0.0718,0.0330,0.0143,-0.1818
10614,0.9978,-0.0247,0.0776,0.0177,0.0601,-0.1360
10624,1.0022,-0.0212,0.0806,-0.0281,0.2280,0.0320
10634,1.0117,-0.0237,0.0806,-0.1197,0.5181,0.1999
10644,1.0139,-0.0254,0.0862,-0.0434,0.7624,0.1847
10654,1.0269,-0.0234,0.0852,-0.0892,0.5334,0.1083
10664,1.0127,-0.0225,0.0879,0.0330,0.0753,-0.0749
10674,1.0127,-0.0237,0.0791,0.0177,-0.2300,-0.1970
10684,1.0020,-0.0215,0.0811,0.0024,-0.3216,-0.2886
10694,1.0085,-0.0244,0.0862,0.0330,-0.3063,-0.0596
10704,1.0005,-0.0217,0.0779,0.0330,-0.2453,0.0167
10714,1.0049,-0.0261,0.0723,0.1246,-0.2147,0.0625
10724,1.0049,-0.0259,0.0720,0.0940,-0.0468,0.2152
10734,1.0095,-0.0261,0.0598,0.1246,0.0295,0.1694
10744,1.0107,-0.0278,0.0645,0.0788,0.2738,0.0473
10754,1.0078,-0.0300,0.0732,0.0177,0.2280,0.0167
10764,1.0027,-0.0281,0.0706,0.0024,0.0906,-0.0138
10774,1.0063,-0.0256,0.0723,0.0177,0.1211,-0.0596
10784,1.0127,-0.0239,0.0740,-0.0586,0.1517,0.0167
10794,1.0098,-0.0239,0.0818,-0.0128,0.2127,-0.0444
10804,1.0181,-0.0222,0.0854,-0.0128,0.1364,-0.0138
10814,1.0181,-0.0208,0.0854,-0.0434,0.3044,-0.0138
10824,1.0090,-0.0222,0.0884,0.0024,0.3502,-0.1360
10834,1.0081,-0.0222,0.0801,-0.0892,0.4570,-0.0444
10844,1.0020,-0.0232,0.0803,-0.0434,0.5028,0.0473
10854,1.0149,-0.0251,0.0771,-0.0434,0.4265,0.0931
10864,1.0166,-0.0225,0.0767,-0.0586,0.4112,0.0778
10874,1.0173,-0.0288,0.0742,-0.0892,0.1822,-0.0138
10884,1.0073,-0.0234,0.0801,-0.0434,-0.1231,-0.1360
10894,1.0034,-0.0276,0.0750,-0.0128,-0.2300,-0.1970
10904,1.0005,-0.0249,0.0776,0.0635,-0.1079,-0.1207
10914,1.0132,-0.0295,0.0691,0.1551,-0.0773,-0.0138
10924,1.0120,-0.0286,0.0740,0.0330,-0.0926,0.0473
10934,1.0063,-0.0256,0.0723,0.0177,-0.0468,-0.0444
10944,1.0112,-0.0237,0.0759,0.0024,0.0601,0.0778
10954,1.0100,-0.0254,0.0808,-0.0281,0.1822,0.0625
10964,1.0125,-0.0256,0.0789,-0.0434,0.1822,-0.0444
10974,1.0005,-0.0215,0.0808,-0.0434,0.1517,-0.1054
10984,1.0098,-0.0232,0.0764,0.0024,0.2585,0.0167
10994,1.0100,-0.0210,0.0852,0.0177,0.2585,0.1389
11004,1.0215,-0.0261,0.0759,0.0635,0.1975,0.0931
11014,1.0120,-0.0212,0.0818,-0.0128,0.0295,0.0931
11024,1.0154,-0.0266,0.0833,0.0024,-0.3369,0.0015
11034,1.0090,-0.0261,0.0789,0.0330,-0.7033,-0.0596
11044,1.0078,-0.0222,0.0747,0.1093,-0.9323,-0.0444
11054,1.0112,-0.0232,0.0784,0.1246,-0.8407,-0.1054
11064,1.0110,-0.0281,0.0776,0.1704,-0.7185,-0.1054
11074,1.0010,-0.0222,0.0774,0.1704,-0.4743,-0.0444
11084,1.0115,-0.0232,0.0740,0.1093,-0.3674,0.1541
11094,1.0095,-0.0242,0.0732,0.0482,-0.1689,0.1236
11104,1.0151,-0.0278,0.0637,0.0177,-0.1384,0.1541
11114,1.0137,-0.0317,0.0701,0.0788,-0.0010,0.1083
11124,1.0122,-0.0256,0.0757,-0.0128,-0.0468,0.0015
11134,1.0056,-0.0232,0.0708,0.0024,-0.0926,-0.1054
11144,1.0127,-0.0232,0.0767,-0.0586,0.1364,-0.0138
11154,1.0132,-0.0247,0.0737,-0.0281,0.4112,-0.0596
11164,1.0156,-0.0232,0.0752,-0.0892,0.5486,0.0015
11174,1.0151,-0.0261,0.0786,-0.0281,0.5028,-0.0749
11184,1.0066,-0.0244,0.0798,-0.0586,0.4418,-0.1360
11194,1.0000,-0.0210,0.0886,-0.0434,0.2738,-0.1818
11204,0.9924,-0.0151,0.0791,-0.0128,0.1059,-0.0138
11214,1.0134,-0.0178,0.0847,0.0788,0.1364,0.1694
11224,1.0215,-0.0242,0.0781,0.0788,0.1975,0.1389
11234,1.0247,-0.0273,0.0696,0.0940,0.1364,0.0320
11244,1.0151,-0.0220,0.0720,-0.0281,-0.0315,-0.1207
11254,0.9932,-0.0222,0.0715,-0.0128,-0.2147,-0.2276
11264,0.9885,-0.0229,0.0698,-0.1197,0.0295,-0.0749
11274,1.0139,-0.0261,0.0706,-0.1350,0.4112,0.2305
11284,1.0244,-0.0283,0.0813,-0.0281,0.5334,0.2610
11294,1.0132,-0.0251,0.0825,-0.0281,0.3502,0.0625
11304,1.0176,-0.0264,0.0754,-0.0892,0.0143,-0.1360
11314,1.0034,-0.0220,0.0813,0.0177,-0.0621,-0.1512
11324,1.0042,-0.0291,0.0742,-0.0281,-0.0621,-0.1207
11334,1.0168,-0.0261,0.0813,0.0482,-0.0773,-0.1360
11344,1.0134,-0.0222,0.0798,-0.0128,-0.1842,0.0015
11354,1.0100,-0.0291,0.0776,0.0330,-0.3216,-0.0902
11364,1.0134,-0.0237,0.0789,0.0177,-0.3063,-0.1970
11374,1.0110,-0.0217,0.0757,-0.0434,-0.1231,-0.1818
11384,1.0015,-0.0198,0.0740,-0.0434,0.0753,-0.1512
11394,1.0110,-0.0217,0.0735,-0.0586,0.3502,-0.0596
11404,1.0081,-0.0264,0.0671,-0.0586,0.3502,-0.0749
11414,1.0034,-0.0190,0.0762,-0.0739,0.2127,-0.1054
11424,1.0044,-0.0208,0.0764,-0.0739,0.1517,-0.0749
11434,1.0024,-0.0190,0.0715,-0.0586,0.0295,-0.0291
11444,1.0120,-0.0266,0.0815,0.0024,-0.0773,-0.0138
11454,1.0078,-0.0242,0.0747,0.0330,-0.0773,-0.0444
11464,1.0100,-0.0229,0.0759,-0.0128,-0.1842,-0.0291
11474,1.0056,-0.0239,0.0806,-0.0434,-0.0468,-0.0291
11484,1.0115,-0.0244,0.0701,-0.0128,0.2738,0.0778
11494,1.0061,-0.0276,0.0715,0.0024,0.5334,0.0625
11504,1.0122,-0.0291,0.0728,-0.1350,0.9914,0.1389
11514,1.0190,-0.0303,0.0742,-0.1655,1.2051,0.1083
11524,1.0159,-0.0327,0.0745,-0.1808,0.9914,0.0167
11534,1.0129,-0.0271,0.0745,-0.2113,0.7166,-0.1818
11544,0.9998,-0.0247,0.0752,-0.1197,0.4570,-0.1970
11554,1.0017,-0.0264,0.0852,-0.0892,0.2433,-0.0902
11564,1.0129,-0.0220,0.0859,0.0482,0.1211,0.0167
11574,1.0063,-0.0234,0.0876,0.0788,-0.1842,0.0778
11584,1.0076,-0.0198,0.0818,0.1093,-0.4895,0.0320
11594,1.0059,-0.0222,0.0745,0.1551,-0.6269,0.0167
11604,1.0098,-0.0232,0.0742,0.1856,-0.4590,0.0931
11614,1.0237,-0.0237,0.0679,0.1093,-0.3827,0.1694
11624,1.0107,-0.0229,0.0718,0.0940,-0.3827,0.0167
11634,1.0110,-0.0247,0.0730,-0.0128,-0.4590,0.0320
11644,0.9993,-0.0220,0.0723,0.0024,-0.3827,-0.0291
11654,1.0005,-0.0242,0.0767,0.0177,-0.1231,0.1389
11664,1.0183,-0.0308,0.0757,0.0177,0.2433,0.1083
11674,1.0171,-0.0283,0.0725,0.0024,0.3654,0.1389
11684,1.0110,-0.0303,0.0693,0.0024,0.3654,0.0778
11694,1.0132,-0.0317,0.0737,-0.0586,0.2433,0.0931
11704,1.0107,-0.0244,0.0730,-0.0281,0.0601,0.0320
11714,1.0103,-0.0251,0.0820,0.0024,-0.1384,0.0320
11724,1.0024,-0.0215,0.0886,0.0940,-0.4895,-0.0444
11734,1.0139,-0.0188,0.0837,0.1246,-0.5964,0.0167
11744,1.0112,-0.0186,0.0801,0.3078,-0.4285,0.0931
11754,1.0103,-0.0186,0.0747,0.2315,-0.3674,0.0931
11764,1.0098,-0.0217,0.0676,0.2009,-0.3979,0.0015
11774,1.0085,-0.0229,0.0686,0.1398,-0.3827,0.0473
11784,1.0054,-0.0278,0.0747,0.0330,-0.3979,-0.0291
11794,1.0049,-0.0225,0.0742,-0.0128,-0.3216,0.0320
11804,1.0081,-0.0232,0.0737,-0.0128,-0.1079,0.2457
11814,1.0168,-0.0273,0.0723,-0.0434,0.3502,0.1389
11824,1.0176,-0.0291,0.0759,0.0177,0.7013,0.0778
11834,1.0156,-0.0251,0.0623,0.0177,0.7318,0.0320
11844,1.0083,-0.0308,0.0681,0.0024,0.5334,0.0473
11854,1.0117,-0.0291,0.0732,-0.0281,0.1211,-0.0138
11864,1.0112,-0.0264,0.0813,-0.0281,-0.3063,-0.0596
11874,1.0066,-0.0271,0.0796,0.0024,-0.5964,-0.1360
11884,1.0042,-0.0193,0.0806,0.0330,-0.6880,-0.0902
11894,1.0022,-0.0217,0.0757,0.1551,-0.5811,0.0167
11904,1.0061,-0.0229,0.0798,0.0940,-0.1231,0.0931
11914,1.0239,-0.0242,0.0713,0.0482,0.0906,0.1999
11924,1.0203,-0.0251,0.0732,0.0635,0.1669,0.0625
11934,1.0137,-0.0244,0.0662,-0.0586,-0.0468,-0.0596
11944,1.0100,-0.0222,0.0750,-0.1502,-0.2605,-0.0902
11954,1.0071,-0.0215,0.0679,-0.1655,-0.2758,-0.1054
11964,0.9988,-0.0232,0.0759,-0.0128,-0.3369,-0.1512
11974,1.0081,-0.0264,0.0784,-0.0739,-0.3674,-0.0291
11984,1.0061,-0.0195,0.0776,0.0177,-0.5201,0.0015
11994,1.0044,-0.0220,0.0745,0.1093,-0.5048,-0.0291
12004,1.0076,-0.0190,0.0688,0.2162,-0.2758,0.1236
12014,1.0139,-0.0276,0.0723,0.1093,0.0753,0.1694
12024,1.0144,-0.0315,0.0679,0.0788,0.3349,0.1694
12034,1.0144,-0.0269,0.0740,-0.0434,0.2585,0.0473
12044,1.0071,-0.0237,0.0750,-0.1502,0.4876,-0.0444
12054,1.0098,-0.0298,0.0747,-0.1502,0.6097,0.0778
12064,1.0166,-0.0225,0.0752,-0.2113,0.8082,0.0015
12074,1.0149,-0.0261,0.0757,-0.1655,0.8234,-0.0749
12084,1.0039,-0.0225,0.0791,-0.0434,0.6708,-0.1207
12094,1.0044,-0.0212,0.0847,-0.0434,0.3960,-0.0902
12104,1.0149,-0.0232,0.0786,-0.0434,0.1517,-0.0444
12114,1.0208,-0.0227,0.0791,-0.0281,-0.0315,-0.1970
12124,1.0107,-0.0254,0.0764,0.0177,-0.1995,-0.1360
12134,1.0015,-0.0217,0.0701,-0.0739,-0.1842,-0.1665
12144,1.0090,-0.0229,0.0830,-0.0281,-0.1537,-0.0596
12154,1.0178,-0.0239,0.0762,0.0482,-0.1384,-0.0291
12164,1.0120,-0.0239,0.0693,0.0482,-0.2147,-0.1360
12174,1.0076,-0.0291,0.0696,-0.0128,-0.1079,-0.0749
12184,1.0088,-0.0281,0.0667,0.0788,0.2585,-0.0444
12194,1.0093,-0.0273,0.0757,-0.0281,0.1822,0.0473
12204,1.0142,-0.0239,0.0710,-0.0281,0.0906,-0.0444
12214,1.0127,-0.0264,0.0776,0.0330,-0.1079,-0.0138
12224,1.0068,-0.0227,0.0793,-0.0281,-0.4437,-0.0444
12234,1.0022,-0.0142,0.0828,-0.0128,-0.3216,-0.1818
12244,1.0088,-0.0186,0.0791,-0.0128,0.0753,0.0167
12254,1.0144,-0.0254,0.0808,0.1093,0.3654,0.0015
12264,1.0107,-0.0259,0.0774,0.1551,0.4876,0.1083
12274,1.0115,-0.0256,0.0762,0.0940,0.2280,0.1236
12284,1.0090,-0.0261,0.0759,0.0177,0.0906,0.0625
12294,1.0103,-0.0237,0.0747,-0.0281,-0.0468,0.1541
12304,1.0139,-0.0229,0.0769,-0.0586,0.1364,0.1083
12314,1.0098,-0.0210,0.0754,-0.0281,0.2433,0.0473
12324,1.0103,-0.0222,0.0718,0.0177,0.3196,0.0167
12334,1.0032,-0.0210,0.0730,0.0940,0.3654,0.0473
12344,1.0112,-0.0251,0.0732,-0.0281,0.4418,0.1083
12354,1.0178,-0.0317,0.0742,-0.0281,0.3502,0.1541
12364,1.0098,-0.0261,0.0776,-0.0128,0.2585,0.1083
12374,1.0093,-0.0286,0.0752,-0.0128,0.1059,0.0778
12384,1.0129,-0.0266,0.0762,-0.0434,0.0143,-0.0138
12394,1.0093,-0.0264,0.0847,-0.0281,-0.1689,-0.1207
12404,1.0078,-0.0210,0.0823,0.1093,-0.3521,0.0320
12414,1.0112,-0.0227,0.0791,0.1704,-0.2911,-0.0596
12424,1.0117,-0.0293,0.0791,0.1551,-0.3521,-0.0291
12434,1.0049,-0.0232,0.0759,0.1093,-0.3063,0.0015
12444,1.0122,-0.0261,0.0691,0.0788,-0.2758,0.0320
12454,1.0093,-0.0251,0.0735,0.0177,-0.1384,-0.0291
12464,1.0100,-0.0205,0.0725,-0.1197,-0.0621,-0.0291
12474,1.0103,-0.0239,0.0745,-0.0586,-0.0468,-0.0291
12484,1.0122,-0.0244,0.0740,-0.1502,0.0295,-0.1360
12494,1.0078,-0.0220,0.0830,-0.1044,0.1517,-0.0596
12504,1.0024,-0.0217,0.0784,-0.0281,0.2127,-0.0138
12514,1.0042,-0.0251,0.0801,-0.0128,0.2738,0.0015
12524,1.0076,-0.0254,0.0806,0.0482,0.1059,0.0015
12534,1.0129,-0.0266,0.0754,0.1246,0.0448,0.0015
12544,1.0127,-0.0322,0.0793,0.0940,0.1517,0.0473
12554,1.0076,-0.0273,0.0740,0.0635,0.1364,0.0167
12564,1.0015,-0.0222,0.0781,0.0024,0.2738,-0.0138
12574,1.0056,-0.0215,0.0791,-0.0739,0.3654,0.0015
12584,1.0146,-0.0273,0.0769,-0.0281,0.4265,0.0167
12594,1.0076,-0.0254,0.0757,-0.0892,0.5486,-0.0291
12604,1.0061,-0.0220,0.0806,-0.0586,0.5639,-0.0444
12614,1.0129,-0.0247,0.0688,0.0330,0.4418,-0.0138
12624,1.0098,-0.0251,0.0786,-0.0281,0.4265,0.0320
12634,1.0073,-0.0288,0.0723,0.0635,0.3960,-0.0291
12644,1.0125,-0.0212,0.0732,0.0482,0.4265,-0.0444
12654,1.0122,-0.0244,0.0781,-0.1197,0.4418,-0.0138
12664,1.0049,-0.0200,0.0730,-0.0892,0.4570,-0.0444
12674,1.0037,-0.0205,0.0762,-0.0434,0.4570,-0.0596
12684,1.0125,-0.0261,0.0752,0.0177,0.5486,0.0931
12694,1.0151,-0.0251,0.0759,0.0330,0.5334,0.1083
12704,1.0164,-0.0271,0.0764,0.0635,0.3044,-0.0444
12714,1.0081,-0.0278,0.0754,-0.0434,-0.0315,-0.1970
12724,0.9976,-0.0249,0.0813,0.0024,-0.2300,-0.1207
12734,1.0010,-0.0212,0.0735,0.0177,-0.2147,-0.0749
12744,1.0127,-0.0266,0.0837,0.0330,-0.0315,0.0625
12754,1.0122,-0.0229,0.0825,0.0788,0.0753,0.0778
12764,1.0159,-0.0249,0.0737,-0.0128,-0.0926,-0.0138
12774,1.0122,-0.0222,0.0730,-0.0128,-0.2605,-0.0902
12784,0.9993,-0.0151,0.0691,-0.0434,-0.4895,-0.0749
12794,0.9988,-0.0195,0.0713,0.0482,-0.4437,-0.0138
12804,1.0100,-0.0222,0.0796,0.1551,-0.3674,0.1389
12814,1.0215,-0.0251,0.0674,0.0940,-0.3674,0.1236
12824,1.0171,-0.0273,0.0737,0.1246,-0.2911,0.0473
12834,1.0120,-0.0237,0.0703,0.0482,-0.2605,-0.0596
12844,0.9985,-0.0237,0.0720,-0.0434,-0.0010,-0.0902
12854,0.9934,-0.0237,0.0735,0.0024,0.3196,-0.0444
12864,1.0071,-0.0303,0.0825,0.0177,0.4265,0.1083
12874,1.0178,-0.0220,0.0759,-0.0128,0.4570,0.1694
12884,1.0186,-0.0251,0.0742,-0.0434,0.1822,0.0931
12894,1.0164,-0.0256,0.0818,0.0482,-0.0926,0.0320
12904,1.0098,-0.0244,0.0815,0.0788,-0.1231,-0.1818
12914,0.9961,-0.0232,0.0740,0.0788,-0.1231,-0.0596
12924,1.0078,-0.0256,0.0767,0.0482,0.0448,0.0931
12934,1.0100,-0.0261,0.0747,0.0024,0.1975,0.0778
12944,1.0095,-0.0237,0.0728,-0.0586,0.1975,0.1541
12954,1.0054,-0.0249,0.0771,-0.0892,0.0906,0.0320
12964,1.0063,-0.0225,0.0710,-0.0128,0.0143,0.1236
12974,1.0039,-0.0232,0.0750,-0.0281,0.1059,0.1236
12984,1.0110,-0.0210,0.0806,-0.0128,0.0906,0.0778
12994,1.0122,-0.0247,0.0725,0.0940,0.1211,0.1236
13004,1.0112,-0.0269,0.0701,0.0482,0.0906,0.0778
13014,1.0093,-0.0266,0.0781,-0.0739,0.0295,0.0320
13024,1.0115,-0.0288,0.0793,-0.0128,0.2891,0.1083
13034,1.0120,-0.0303,0.0747,-0.0739,0.5334,0.1389
13044,1.0088,-0.0298,0.0728,-0.0739,0.8082,0.1389
13054,1.0112,-0.0261,0.0771,-0.1502,0.9608,0.0931
13064,1.0105,-0.0256,0.0762,-0.0892,0.9303,0.0015
13074,1.0107,-0.0308,0.0884,-0.0281,0.5334,-0.0596
13084,1.0078,-0.0237,0.0764,0.0177,0.2738,-0.0596
13094,1.0117,-0.0229,0.0737,0.0024,-0.0468,-0.0291
13104,1.0127,-0.0266,0.0811,0.0635,-0.1537,-0.0444
13114,1.0115,-0.0264,0.0801,0.0177,-0.1995,-0.0444
13124,1.0088,-0.0225,0.0803,-0.0434,-0.2300,-0.0596
13134,1.0000,-0.0205,0.0762,-0.0281,-0.1842,-0.0291
13144,1.0029,-0.0229,0.0735,0.0024,-0.0163,0.0167
13154,1.0151,-0.0281,0.0750,-0.0128,0.2127,0.1236
13164,1.0161,-0.0249,0.0801,-0.0281,0.0601,0.0625
13174,1.0142,-0.0251,0.0715,-0.0281,-0.0926,0.0167
13184,1.0110,-0.0242,0.0779,-0.0586,-0.0926,-0.0902
13194,1.0068,-0.0264,0.0710,-0.0281,-0.1537,-0.0596
13204,1.0107,-0.0269,0.0747,0.1093,-0.1842,-0.0596
13214,1.0132,-0.0281,0.0728,0.1704,-0.2605,-0.0596
13224,1.0122,-0.0278,0.0674,0.0482,-0.2605,-0.0596
13234,1.0081,-0.0281,0.0798,-0.0281,-0.2147,-0.1054
13244,1.0103,-0.0266,0.0789,-0.1197,-0.0773,-0.0749
13254,1.0090,-0.0217,0.0798,-0.1044,0.1364,0.0778
13264,1.0132,-0.0234,0.0735,-0.0586,0.3196,0.1236
13274,1.0168,-0.0273,0.0730,-0.0586,0.4265,0.0778
13284,1.0129,-0.0227,0.0771,0.0177,0.4418,-0.0291
13294,1.0103,-0.0212,0.0698,-0.0434,0.1364,-0.0749
13304,1.0132,-0.0237,0.0691,-0.0281,-0.0468,-0.0138
13314,1.0090,-0.0254,0.0759,-0.0128,0.0295,0.0167
13324,1.0039,-0.0203,0.0732,0.0482,0.1364,-0.0444
13334,1.0142,-0.0227,0.0786,0.1246,0.1059,-0.0749
13344,1.0132,-0.0247,0.0776,0.0024,0.1364,-0.0138
13354,1.0144,-0.0293,0.0735,-0.0128,0.1059,-0.0749
13364,1.0107,-0.0276,0.0815,-0.0586,-0.0926,-0.0902
13374,1.0034,-0.0286,0.0781,-0.0586,-0.0468,-0.1207
13384,1.0076,-0.0259,0.0803,-0.0128,-0.0315,-0.0749
13394,1.0139,-0.0220,0.0825,-0.0586,-0.0163,-0.0444
13404,1.0090,-0.0205,0.0737,0.0635,0.0295,-0.0444
13414,1.0127,-0.0269,0.0747,0.0330,0.1211,-0.0902
13424,1.0186,-0.0286,0.0752,0.1093,0.1517,-0.0138
13434,1.0120,-0.0276,0.0674,0.0024,0.0143,-0.1360
13444,1.0054,-0.0254,0.0747,-0.0739,-0.0773,-0.1360
13454,1.0059,-0.0271,0.0798,-0.1197,0.0143,-0.1054
13464,1.0054,-0.0222,0.0737,-0.1197,0.0448,-0.0596
13474,1.0107,-0.0203,0.0813,-0.0128,0.0601,0.0015
13484,1.0105,-0.0237,0.0815,0.0330,0.0295,-0.1360
13494,1.0066,-0.0210,0.0754,0.0482,-0.0926,-0.0444
13504,1.0027,-0.0220,0.0713,0.1246,-0.0315,0.0473
13514,1.0132,-0.0242,0.0747,0.1856,0.0601,0.1083
13524,1.0076,-0.0310,0.0737,0.0177,-0.0315,0.0167
13534,1.0151,-0.0266,0.0659,0.0635,-0.0468,0.0931
13544,1.0127,-0.0210,0.0759,0.0177,-0.0621,0.0015
13554,1.0054,-0.0283,0.0723,-0.0434,0.1822,0.0015
13564,1.0098,-0.0261,0.0840,0.0330,0.2891,0.0473
13574,1.0100,-0.0256,0.0811,-0.0281,0.3960,0.0473
13584,1.0105,-0.0244,0.0789,0.0330,0.5181,0.0931
13594,1.0083,-0.0305,0.0779,0.0482,0.4418,0.0931
13604,1.0095,-0.0254,0.0769,-0.0128,0.2585,0.0167
13614,1.0095,-0.0249,0.0669,-0.0128,-0.0468,0.0931
13624,1.0078,-0.0208,0.0757,-0.0739,-0.0773,0.0167
13634,1.0125,-0.0232,0.0767,0.0024,-0.0621,0.0167
13644,1.0137,-0.0276,0.0776,-0.0739,0.1211,-0.0138
13654,1.0186,-0.0273,0.0718,-0.0586,0.1059,-0.0596
13664,1.0139,-0.0242,0.0762,-0.0128,0.1669,-0.0902
13674,1.0002,-0.0249,0.0732,-0.0739,0.3349,-0.1512
13684,1.0042,-0.0249,0.0752,-0.0281,0.2891,-0.0902
13694,1.0093,-0.0298,0.0798,-0.0892,0.0601,-0.0596
13704,1.0171,-0.0227,0.0798,-0.0128,-0.1079,-0.0749
13714,1.0215,-0.0283,0.0769,-0.1960,-0.2758,-0.0444
13724,1.0110,-0.0222,0.0789,-0.0586,-0.2758,-0.2276
13734,1.0039,-0.0234,0.0859,0.0330,-0.1842,-0.1970
13744,1.0000,-0.0212,0.0754,0.0788,-0.0468,-0.1665
13754,1.0105,-0.0269,0.0715,-0.0128,0.2433,-0.0596
13764,1.0095,-0.0261,0.0710,-0.0434,0.3502,0.1083
13774,1.0127,-0.0269,0.0752,-0.0128,0.2433,0.1083
13784,1.0164,-0.0225,0.0789,-0.1044,0.0143,0.0931
13794,1.0103,-0.0225,0.0801,-0.1197,-0.0926,-0.0444
13804,1.0039,-0.0200,0.0754,-0.0586,-0.1537,-0.0902
13814,1.0032,-0.0198,0.0757,0.0177,0.0295,-0.0291
13824,1.0076,-0.0271,0.0735,0.0635,0.1669,0.0473
13834,1.0071,-0.0276,0.0698,0.0940,0.2127,0.0473
13844,1.0164,-0.0273,0.0781,0.0482,0.1364,0.0473
13854,1.0249,-0.0271,0.0798,0.0177,-0.0468,0.0320
13864,1.0134,-0.0229,0.0796,-0.1197,-0.1995,-0.1207
13874,1.0078,-0.0234,0.0784,-0.0128,-0.2605,-0.1512
13884,1.0068,-0.0220,0.0793,-0.0128,-0.0315,-0.1360
13894,1.0088,-0.0256,0.0754,0.0177,0.2433,-0.0291
13904,1.0081,-0.0281,0.0696,0.0482,0.3349,0.0778
13914,1.0142,-0.0288,0.0713,0.0330,0.2280,0.1694
13924,1.0159,-0.0266,0.0769,0.0024,0.0295,0.0167
13934,1.0142,-0.0305,0.0735,-0.0128,-0.2147,-0.0596
13944,1.0078,-0.0190,0.0830,-0.0892,-0.4285,-0.1054
13954,1.0078,-0.0198,0.0750,0.0024,-0.4437,-0.1054
13964,1.0056,-0.0220,0.0796,0.0330,-0.1995,-0.0291
13974,1.0010,-0.0234,0.0791,0.0635,-0.0773,-0.0596
13984,1.0054,-0.0225,0.0725,0.1856,-0.0010,0.0015
13994,1.0146,-0.0227,0.0767,0.1246,-0.0468,0.1847
14004,1.0171,-0.0266,0.0747,0.0788,-0.2147,0.1541
14014,1.0127,-0.0276,0.0803,0.0177,-0.2300,0.0473
14024,1.0090,-0.0266,0.0759,-0.0281,-0.0926,-0.0138
14034,1.0107,-0.0281,0.0664,-0.1350,-0.0010,-0.0138
14044,1.0020,-0.0295,0.0759,-0.0586,0.2738,-0.0444
14054,1.0122,-0.0286,0.0674,-0.0739,0.5944,0.0167
14064,1.0083,-0.0266,0.0662,-0.0739,0.7776,-0.0138
14074,1.0063,-0.0254,0.0708,-0.0892,0.9150,0.0167
14084,1.0095,-0.0256,0.0752,-0.0892,0.8387,0.0473
14094,1.0105,-0.0190,0.0784,-0.0434,0.5486,0.0473
14104,1.0142,-0.0234,0.0815,-0.0586,0.1975,0.0015
14114,1.0144,-0.0227,0.0774,0.0330,-0.0926,-0.0902
14124,1.0112,-0.0234,0.0830,0.0788,-0.3369,-0.1818
14134,1.0173,-0.0205,0.0789,0.0482,-0.4743,-0.2581
14144,1.0088,-0.0205,0.0791,0.0177,-0.5353,-0.2428
14154,1.0002,-0.0208,0.0703,0.0788,-0.3674,-0.0749
14164,0.9910,-0.0215,0.0710,0.0788,0.0143,0.0625
14174,1.0100,-0.0227,0.0737,0.1093,0.6860,0.2763
14184,1.0156,-0.0308,0.0728,0.1246,0.8540,0.4289
14194,1.0264,-0.0273,0.0725,0.0024,0.5792,0.2763
14204,1.0273,-0.0239,0.0728,-0.1044,0.0295,-0.0596
14214,1.0129,-0.0266,0.0798,-0.0892,-0.4437,-0.2886
14224,0.9998,-0.0225,0.0803,-0.0128,-0.9170,-0.4413
14234,0.9978,-0.0281,0.0818,0.0330,-1.0392,-0.3802
14244,0.9858,-0.0232,0.0728,0.0330,-0.8254,-0.1665
14254,0.9956,-0.0225,0.0698,0.0788,-0.1842,0.1236
14264,1.0168,-0.0278,0.0713,0.1093,0.4876,0.3068
14274,1.0271,-0.0251,0.0730,0.0788,0.8082,0.3679
14284,1.0227,-0.0271,0.0771,-0.0128,0.7013,0.2152
14294,1.0132,-0.0251,0.0769,-0.1044,0.2280,-0.0749
14304,0.9941,-0.0186,0.0784,-0.0892,-0.0926,-0.1970
14314,0.9983,-0.0173,0.0806,-0.0281,-0.0163,-0.0291
14324,1.0137,-0.0217,0.0776,0.0330,0.1517,0.0931
14334,1.0161,-0.0271,0.0737,0.1856,0.3807,0.1847
14344,1.0071,-0.0276,0.0708,0.0788,0.3654,0.0778
14354,1.0056,-0.0210,0.0803,0.0482,0.0753,0.1083
14364,1.0012,-0.0266,0.0784,0.1093,-0.1842,0.1236
14374,1.0195,-0.0234,0.0808,0.1246,-0.6117,0.1236
14384,1.0220,-0.0254,0.0813,0.2162,-1.0392,0.0931
14394,1.0061,-0.0203,0.0828,0.1551,-1.0239,-0.0138
14404,1.0061,-0.0242,0.0767,0.2925,-0.6727,0.1236
14414,1.0015,-0.0251,0.0642,0.2467,-0.1537,0.1541
14424,1.0081,-0.0266,0.0659,0.1704,0.1822,0.1694
14434,1.0127,-0.0293,0.0696,0.0635,0.1059,0.2457
14444,1.0071,-0.0305,0.0791,-0.1044,-0.1537,0.1541
14454,1.0110,-0.0264,0.0720,-0.0739,-0.3216,0.1847
14464,1.0127,-0.0222,0.0732,-0.0739,-0.1537,0.0625
14474,1.0093,-0.0249,0.0735,-0.0434,0.2585,0.1694
14484,1.0085,-0.0269,0.0754,0.0024,0.4265,0.0931
14494,1.0110,-0.0222,0.0737,0.0635,0.4570,0.0473
14504,1.0093,-0.0261,0.0764,0.0482,0.2738,0.0931
14514,1.0151,-0.0259,0.0823,-0.0739,-0.0773,-0.0138
14524,1.0156,-0.0247,0.0864,0.0330,-0.4743,-0.0749
14534,1.0090,-0.0269,0.0757,-0.0128,-0.5964,-0.1665
14544,1.0010,-0.0249,0.0791,0.0482,-0.5048,-0.2123
14554,1.0120,-0.0249,0.0725,0.0482,-0.4132,-0.1360
14564,1.0027,-0.0261,0.0771,0.0482,-0.0926,-0.0444
14574,1.0061,-0.0281,0.0688,0.1093,0.1211,0.0473
14584,1.0210,-0.0254,0.0684,-0.0434,0.3044,0.1083
14594,1.0120,-0.0247,0.0732,-0.1044,0.3044,0.0320
14604,1.0073,-0.0227,0.0691,-0.1655,0.3654,-0.0749
14614,1.0110,-0.0244,0.0762,-0.1655,0.3654,-0.1054
14624,1.0068,-0.0225,0.0769,-0.0739,0.5486,-0.1818
14634,1.0049,-0.0259,0.0767,-0.0739,0.5028,-0.2123
14644,1.0129,-0.0237,0.0750,-0.1350,0.4876,-0.2581
14654,1.0078,-0.0242,0.0728,-0.0128,0.4570,-0.1665
14664,1.0037,-0.0247,0.0703,-0.0281,0.3502,-0.0902
14674,1.0083,-0.0254,0.0789,-0.0434,0.3044,-0.0749
14684,1.0083,-0.0261,0.0776,-0.1044,0.5028,-0.0444
14694,1.0103,-0.0256,0.0713,-0.0434,0.5792,0.0473
14704,1.0144,-0.0261,0.0798,-0.0892,0.7318,0.0320
14714,1.0186,-0.0256,0.0767,-0.0892,0.4723,-0.1512
14724,1.0125,-0.0256,0.0776,-0.0892,0.2280,-0.1665
14734,1.0017,-0.0210,0.0803,-0.1808,0.2433,-0.2276
14744,0.9973,-0.0198,0.0747,-0.0892,0.4570,-0.1360
14754,1.0098,-0.0254,0.0750,-0.1197,0.8998,0.0320
14764,1.0144,-0.0283,0.0674,-0.1808,1.2662,0.1083
14774,1.0098,-0.0276,0.0725,-0.2113,1.3578,0.0473
14784,1.0161,-0.0286,0.0786,-0.1655,1.0219,-0.0596
14794,1.0044,-0.0281,0.0764,-0.1197,0.5486,-0.1207
14804,1.0063,-0.0208,0.0781,-0.0128,0.1059,-0.0138
14814,1.0107,-0.0254,0.0779,-0.0586,-0.1689,-0.0749
14824,1.0088,-0.0234,0.0823,0.0788,-0.2758,-0.0596
14834,1.0093,-0.0220,0.0781,0.1856,-0.3979,0.0015
14844,1.0129,-0.0215,0.0786,0.1551,-0.4437,0.0015
14854,1.0120,-0.0234,0.0698,0.1398,-0.4285,0.0015
14864,1.0076,-0.0244,0.0720,0.0177,-0.2300,0.0625
14874,1.0100,-0.0200,0.0828,-0.0128,-0.0621,0.0167
14884,1.0134,-0.0247,0.0776,-0.0128,0.0295,0.1083
14894,1.0117,-0.0210,0.0859,0.0177,-0.0163,0.0473
14904,1.0171,-0.0251,0.0774,0.0330,-0.1995,-0.0902
14914,1.0134,-0.0278,0.0754,0.0482,-0.5201,-0.2123
14924,1.0032,-0.0266,0.0718,0.1246,-0.5506,-0.1665
14934,0.9973,-0.0291,0.0686,0.1398,-0.6269,-0.0749
14944,1.0054,-0.0264,0.0627,0.1246,-0.3674,0.0320
14954,1.0056,-0.0281,0.0676,0.0940,-0.0010,0.0625
14964,1.0183,-0.0256,0.0784,0.0024,0.1364,0.1389
14974,1.0132,-0.0300,0.0737,-0.0434,0.2127,0.0625
14984,1.0161,-0.0269,0.0798,0.0177,0.2280,-0.0596
14994,1.0117,-0.0247,0.0862,0.0024,0.1517,-0.0138
15004,1.0137,-0.0208,0.0825,-0.0586,-0.0010,-0.0444
15014,1.0090,-0.0217,0.0835,0.0024,-0.1384,-0.1054
15024,0.9988,-0.0176,0.0793,0.0482,-0.1689,-0.0596
15034,1.0024,-0.0217,0.0774,0.0635,0.0295,0.0167
15044,1.0176,-0.0271,0.0745,0.0788,0.1364,0.2610
15054,1.0188,-0.0251,0.0708,0.0330,0.2280,0.1847
15064,1.0149,-0.0276,0.0696,0.0024,0.1517,0.1236
15074,1.0110,-0.0251,0.0803,0.0024,0.1364,-0.0291
15084,1.0122,-0.0283,0.0730,-0.0434,0.0906,-0.0291
15094,1.0105,-0.0247,0.0723,-0.0739,-0.1842,-0.0596
15104,1.0046,-0.0244,0.0796,-0.0739,-0.4132,-0.1512
15114,0.9958,-0.0220,0.0730,-0.0586,-0.4743,-0.0902
15124,1.0000,-0.0234,0.0715,0.0482,-0.2300,0.0167
15134,1.0190,-0.0291,0.0671,0.0940,0.0906,0.1694
15144,1.0168,-0.0293,0.0674,0.1093,0.2585,0.1236
15154,1.0137,-0.0269,0.0728,0.0482,0.3502,0.0625
15164,1.0061,-0.0271,0.0757,0.0177,0.2738,0.0015
15174,1.0098,-0.0181,0.0815,-0.0281,0.2738,-0.0291
15184,1.0112,-0.0220,0.0808,-0.1197,0.2585,0.0167
15194,1.0100,-0.0259,0.0820,-0.0586,0.4418,0.0320
15204,1.0156,-0.0259,0.0764,-0.0281,0.7776,0.0473
15214,1.0159,-0.0276,0.0750,-0.0892,0.6708,-0.0749
15224,1.0144,-0.0286,0.0791,-0.0434,0.4418,-0.1207
15234,0.9993,-0.0259,0.0786,0.0024,0.0753,-0.1512
15244,1.0007,-0.0225,0.0806,-0.0128,-0.0773,-0.0596
15254,1.0107,-0.0251,0.0750,0.0330,-0.1537,0.0625
15264,1.0303,-0.0261,0.0781,0.1856,-0.3674,0.0473
15274,1.0281,-0.0273,0.0798,0.1704,-0.7185,-0.1665
15284,1.0115,-0.0227,0.0801,0.2009,-0.9628,-0.3344
15294,0.9937,-0.0200,0.0769,0.1551,-1.0850,-0.3802
15304,0.9966,-0.0190,0.0706,0.1704,-0.8560,-0.1207
15314,0.9968,-0.0205,0.0720,0.2009,-0.4437,0.0778
15324,1.0107,-0.0261,0.0764,0.1246,-0.0926,0.2305
15334,1.0193,-0.0239,0.0762,0.0482,0.0295,0.2610
15344,1.0171,-0.0264,0.0718,-0.0434,0.1669,0.0778
15354,1.0159,-0.0261,0.0676,-0.1655,0.4570,0.0473
15364,1.0066,-0.0315,0.0696,-0.1655,0.7471,-0.0596
15374,0.9985,-0.0286,0.0696,-0.0281,0.9456,-0.0444
15384,1.0044,-0.0259,0.0728,-0.1197,0.8845,0.1236
15394,1.0132,-0.0273,0.0779,-0.1044,0.7471,0.1847
15404,1.0161,-0.0273,0.0798,-0.0281,0.4418,0.0931
15414,1.0120,-0.0256,0.0818,0.0177,0.2127,-0.0138
15424,1.0042,-0.0239,0.0815,0.0482,0.1059,-0.0902
15434,1.0139,-0.0232,0.0815,0.0635,0.0753,-0.1207
15444,1.0117,-0.0237,0.0796,0.0330,0.0753,0.0167
15454,1.0164,-0.0291,0.0789,0.0024,0.1059,0.0015
15464,1.0134,-0.0237,0.0833,-0.0586,0.0448,-0.1207
15474,1.0105,-0.0203,0.0837,-0.0281,-0.1537,-0.2276
15484,1.0059,-0.0186,0.0786,0.0024,-0.1384,-0.1818
15494,1.0073,-0.0217,0.0706,-0.0281,-0.0468,-0.0444
15504,0.9978,-0.0210,0.0764,-0.0128,0.0753,0.0778
15514,1.0085,-0.0208,0.0771,0.0635,0.0448,0.1083
15524,1.0181,-0.0244,0.0703,0.0482,0.0601,0.1389
15534,1.0137,-0.0242,0.0708,-0.0128,0.0143,0.1083
15544,1.0146,-0.0232,0.0725,0.0482,-0.0315,0.0015
15554,1.0042,-0.0234,0.0730,-0.0128,-0.1231,-0.1207
15564,1.0037,-0.0227,0.0718,0.0788,-0.0468,-0.0749
15574,1.0115,-0.0256,0.0771,-0.0739,0.2891,-0.0444
15584,1.0159,-0.0276,0.0767,-0.0586,0.3196,0.0320
15594,1.0159,-0.0283,0.0825,-0.0434,0.1669,0.0015
15604,1.0027,-0.0247,0.0840,-0.0739,0.1059,0.0473
15614,1.0059,-0.0227,0.0767,0.0024,0.2433,0.1541
15624,1.0164,-0.0308,0.0791,0.0177,0.3960,0.2152
15634,1.0173,-0.0278,0.0769,-0.0434,0.2891,0.1083
15644,1.0132,-0.0239,0.0740,-0.0128,0.0906,0.0015
15654,1.0093,-0.0200,0.0732,-0.0434,0.1059,0.0167
15664,1.0066,-0.0256,0.0764,-0.0434,0.1669,-0.0291
15674,1.0076,-0.0249,0.0767,-0.0739,0.0295,0.0015
15684,1.0115,-0.0249,0.0701,0.0024,-0.1384,-0.0749
15694,1.0134,-0.0288,0.0764,-0.0434,-0.3521,-0.0902
15704,1.0005,-0.0229,0.0759,0.0330,-0.3827,-0.1665
15714,1.0039,-0.0239,0.0657,0.0177,-0.3216,-0.0444
15724,1.0149,-0.0264,0.0754,0.1856,-0.0926,0.0625
15734,1.0137,-0.0239,0.0696,0.1856,-0.0315,0.1236
15744,1.0056,-0.0271,0.0730,0.0330,-0.0163,-0.0138
15754,1.0017,-0.0261,0.0769,-0.0739,-0.0315,0.1083
15764,1.0178,-0.0200,0.0791,0.0482,-0.0315,0.1694
15774,1.0261,-0.0232,0.0779,-0.0586,0.1059,0.1847
15784,1.0142,-0.0203,0.0854,-0.0281,-0.0163,0.0473
15794,1.0000,-0.0229,0.0820,-0.0128,-0.0315,-0.0444
15804,1.0056,-0.0232,0.0757,0.0940,0.1822,0.0473
15814,1.0198,-0.0273,0.0735,0.0330,0.3960,0.1541
15824,1.0085,-0.0322,0.0681,0.0177,0.3349,0.0473
15834,0.9949,-0.0271,0.0754,-0.0586,0.3044,0.0625
15844,1.0115,-0.0286,0.0659,-0.0434,0.5181,0.1389
15854,1.0210,-0.0278,0.0688,-0.0586,0.7624,0.1236
15864,1.0286,-0.0281,0.0806,-0.0434,0.6555,0.0015
15874,1.0022,-0.0210,0.0679,-0.1808,0.3502,-0.2734
15884,0.9858,-0.0203,0.0718,-0.1044,0.2433,-0.2734
15894,1.0054,-0.0200,0.0752,-0.0281,0.3807,-0.1054
15904,1.0378,-0.0286,0.0784,0.0177,0.5486,0.0778
15914,1.0330,-0.0295,0.0798,-0.0586,0.1517,-0.0596
15924,1.0046,-0.0203,0.0891,-0.0586,-0.5048,-0.3650
15934,0.9944,-0.0134,0.0850,-0.0586,-0.8560,-0.3344
15944,1.0015,-0.0186,0.0715,0.0635,-0.7033,-0.1970
15954,1.0186,-0.0276,0.0862,0.0482,-0.3827,-0.0291
15964,1.0034,-0.0232,0.0764,0.0635,-0.3674,0.0473
15974,0.9875,-0.0203,0.0757,0.0024,-0.2758,0.0625
15984,1.0066,-0.0247,0.0767,-0.0128,-0.0163,0.1847
15994,1.0259,-0.0276,0.0669,0.0635,0.1059,0.2763
16004,1.0090,-0.0229,0.0669,0.1093,0.1364,0.2610
16014,1.0002,-0.0269,0.0715,-0.1044,0.2891,0.1541
16024,1.0134,-0.0256,0.0679,-0.0892,0.4570,0.1847
16034,1.0205,-0.0330,0.0657,-0.0892,0.7624,0.1999
16044,1.0183,-0.0305,0.0735,-0.0586,0.6097,-0.0749
16054,1.0022,-0.0256,0.0737,-0.0892,0.2585,-0.1818
16064,0.9915,-0.0239,0.0864,-0.0739,0.1517,-0.1054
16074,1.0046,-0.0254,0.0840,0.0177,0.3196,0.1083
16084,1.0256,-0.0273,0.0823,0.1093,0.3807,0.1389
16094,1.0225,-0.0259,0.0803,0.0635,0.0753,0.0778
16104,1.0168,-0.0239,0.0776,0.0330,-0.2300,-0.0596
16114,1.0125,-0.0254,0.0754,0.0024,-0.2300,-0.0596
16124,1.0090,-0.0281,0.0798,-0.0434,-0.0773,-0.0444
16134,1.0132,-0.0247,0.0728,-0.1350,0.0448,0.0015
16144,1.0051,-0.0210,0.0759,-0.1350,-0.0163,0.0167
16154,1.0142,-0.0251,0.0793,-0.1044,-0.0468,-0.0444
16164,1.0168,-0.0232,0.0757,-0.0128,-0.1384,-0.0596
16174,1.0068,-0.0266,0.0732,0.0024,-0.3979,-0.1360
16184,0.9968,-0.0193,0.0708,0.0635,-0.5201,-0.1207
16194,1.0061,-0.0227,0.0732,0.0482,-0.2758,0.0015
16204,1.0002,-0.0232,0.0691,0.1704,0.0753,0.0931
16214,1.0112,-0.0256,0.0710,0.1704,0.3960,0.1694
16224,1.0186,-0.0273,0.0669,0.0940,0.4570,0.1389
16234,1.0007,-0.0269,0.0994,0.0177,0.6250,0.1083
16244,1.0129,-0.0237,0.0747,-0.1502,0.4418,0.1694
16254,1.0176,-0.0254,0.0793,-0.1044,0.5486,0.0778
16264,1.0161,-0.0247,0.0842,-0.0739,0.7318,0.0320
16274,1.0139,-0.0281,0.0864,-0.0892,0.6097,0.0473
16284,1.0059,-0.0298,0.0854,-0.0434,0.4876,-0.0596
16294,1.0037,-0.0276,0.0825,0.0482,0.1364,-0.0291
16304,0.9983,-0.0217,0.0737,0.0635,0.1059,0.0473
16314,1.0171,-0.0239,0.0801,0.0330,0.1517,0.1847
