timestamp_ms,ax,ay,az,gx,gy,gz
3964,-1.0126,0.0116,0.0235,-0.0409,-0.1120,0.0071
3974,-1.0077,0.0094,0.0295,0.0507,-0.1425,-0.0692
3984,-1.0064,0.0119,0.0302,0.0507,-0.0509,-0.0540
3994,-1.0042,0.0107,0.0276,0.0354,0.0254,-0.0845
4004,-1.0094,0.0090,0.0307,-0.1173,-0.0356,-0.0387
4014,-1.0101,0.0087,0.0285,-0.0867,-0.0051,0.0071
4024,-1.0089,0.0092,0.0285,0.0202,0.0254,0.0071
4034,-1.0084,0.0121,0.0297,-0.0256,-0.0356,0.0682
4044,-1.0091,0.0090,0.0305,0.0965,0.0254,0.0834
4054,-1.0064,0.0119,0.0280,-0.0256,0.1018,0.0682
4064,-1.0084,0.0092,0.0293,-0.0256,0.1323,0.0682
4074,-1.0035,0.0094,0.0293,-0.0409,0.0865,0.0071
4084,-1.0062,0.0104,0.0285,-0.1478,0.0560,0.1445
4094,-1.0074,0.0097,0.0288,-0.0409,0.1018,-0.0540
4104,-1.0089,0.0099,0.0230,-0.0104,0.1323,0.0224
4114,-1.0082,0.0141,0.0295,-0.0409,0.1628,-0.1150
4124,-1.0113,0.0114,0.0300,-0.0409,0.0407,-0.0540
4134,-1.0118,0.0119,0.0235,-0.0409,0.0560,-0.0234
4144,-1.0082,0.0141,0.0285,-0.0104,0.0102,-0.0082
4154,-1.0064,0.0090,0.0222,-0.0562,-0.0051,-0.0692
4164,-1.0077,0.0129,0.0259,-0.0409,-0.0051,0.0376
4174,-1.0113,0.0065,0.0235,-0.0104,0.0560,-0.0692
4184,-1.0116,0.0055,0.0297,-0.0104,-0.0509,-0.0387
4194,-1.0050,0.0077,0.0276,0.0812,0.0254,0.0071
4204,-1.0084,0.0107,0.0290,0.0660,0.0712,-0.0387
4214,-1.0084,0.0138,0.0324,0.1118,-0.0204,0.0224
4224,-1.0106,0.0134,0.0297,0.1270,0.0407,0.0224
4234,-1.0116,0.0134,0.0264,0.0965,0.0407,0.0834
4244,-1.0133,0.0102,0.0331,0.0507,0.0560,0.0987
4254,-1.0096,0.0138,0.0239,-0.0104,0.0560,0.0834
4264,-1.0064,0.0092,0.0213,-0.0256,0.1018,0.0071
4274,-1.0126,0.0104,0.0261,-0.0409,0.1323,-0.0234
4284,-1.0116,0.0121,0.0326,0.0049,0.0712,0.0376
4294,-1.0067,0.0116,0.0264,-0.0104,0.0254,-0.0692
4304,-1.0084,0.0082,0.0290,0.0049,-0.0509,0.0224
4314,-1.0064,0.0073,0.0283,0.0812,-0.0356,0.0071
4324,-1.0101,0.0085,0.0339,0.0354,0.0560,0.0529
4334,-1.0067,0.0114,0.0247,0.0354,-0.0204,0.0071
4344,-1.0111,0.0094,0.0322,0.0354,-0.0051,0.0376
4354,-1.0096,0.0102,0.0251,-0.0409,-0.0051,-0.0387
4364,-1.0064,0.0104,0.0181,-0.0256,-0.1120,-0.0845
4374,-1.0113,0.0114,0.0213,-0.0256,-0.1425,-0.0082
4384,-1.0033,0.0177,0.0285,0.0202,-0.2036,-0.0234
4394,-1.0086,0.0138,0.0264,0.0049,-0.1273,-0.0540
4404,-1.0106,0.0119,0.0280,-0.0256,-0.1273,0.0071
4414,-1.0064,0.0080,0.0254,-0.0104,-0.1273,-0.0234
4424,-1.0072,0.0077,0.0280,-0.0104,-0.0356,0.0224
4434,-1.0101,0.0099,0.0341,0.0354,-0.0204,-0.0082
4444,-1.0086,0.0094,0.0259,0.0507,0.0407,0.0376
4454,-1.0060,0.0094,0.0237,0.0660,0.1018,0.0834
4464,-1.0086,0.0070,0.0235,0.0049,0.0407,-0.0082
4474,-1.0113,0.0116,0.0317,0.0049,0.1018,0.0376
4484,-1.0091,0.0109,0.0276,0.0354,0.0712,-0.0082
4494,-1.0121,0.0148,0.0310,0.0660,0.0407,0.0071
4504,-1.0099,0.0129,0.0273,-0.0409,-0.0051,0.0071
4514,-1.0062,0.0073,0.0314,-0.0256,-0.0662,-0.0387
4524,-1.0067,0.0136,0.0259,0.0354,-0.0509,0.0224
4534,-1.0074,0.0102,0.0300,-0.0104,0.0407,-0.0540
4544,-1.0072,0.0112,0.0288,-0.0562,0.1323,-0.0540
4554,-1.0101,0.0104,0.0268,0.0049,0.0407,-0.0845
4564,-1.0045,0.0085,0.0331,0.0049,0.0407,-0.0387
4574,-1.0079,0.0094,0.0310,0.0202,0.0407,-0.1150
4584,-1.0096,0.0065,0.0293,-0.0409,0.0865,-0.0540
4594,-1.0096,0.0073,0.0339,0.0507,0.1323,-0.0387
4604,-1.0069,0.0114,0.0208,0.0354,0.0560,0.0376
4614,-1.0067,0.0085,0.0193,0.0049,0.0102,0.0376
4624,-1.0091,0.0094,0.0290,-0.0409,0.0407,0.0529
4634,-1.0047,0.0099,0.0283,0.0202,0.0560,-0.0387
4644,-1.0104,0.0114,0.0232,-0.0562,0.0407,-0.0692
4654,-1.0064,0.0092,0.0348,-0.0256,-0.0356,0.0376
4664,-1.0086,0.0146,0.0259,-0.0104,-0.0356,0.0376
4674,-1.0118,0.0099,0.0230,-0.0104,-0.0356,0.0987
4684,-1.0094,0.0163,0.0302,0.0202,-0.0356,0.0834
4694,-1.0064,0.0099,0.0285,-0.0715,-0.0051,-0.1150
4704,-1.0084,0.0112,0.0300,-0.0104,-0.0051,-0.0540
4714,-1.0116,0.0077,0.0326,0.0354,-0.0815,-0.0845
4724,-1.0101,0.0090,0.0283,0.0660,0.0560,-0.0540
4734,-1.0045,0.0119,0.0295,0.0049,0.0102,-0.0234
4744,-1.0086,0.0119,0.0210,0.0049,0.0712,-0.0845
4754,-1.0089,0.0080,0.0276,-0.0256,0.1170,-0.0387
4764,-1.0106,0.0087,0.0264,-0.1173,0.0865,-0.0082
4774,-1.0079,0.0102,0.0310,0.0049,0.0407,-0.0387
4784,-1.0077,0.0099,0.0283,0.0049,0.0865,-0.0082
4794,-1.0086,0.0087,0.0290,-0.0104,0.0560,-0.0234
4804,-1.0118,0.0104,0.0230,0.0354,0.0712,-0.0387
4814,-1.0094,0.0094,0.0251,-0.0256,0.0560,-0.0387
4824,-1.0113,0.0085,0.0249,0.0202,-0.0051,0.0376
4834,-1.0086,0.0077,0.0208,0.0660,-0.0662,0.0224
4844,-1.0091,0.0107,0.0283,0.0507,-0.0051,0.0071
4854,-1.0069,0.0080,0.0276,0.0507,0.0407,0.0224
4864,-1.0104,0.0104,0.0307,-0.0256,0.0560,0.0529
4874,-1.0069,0.0121,0.0302,-0.0104,0.0712,-0.0234
4884,-1.0123,0.0109,0.0227,-0.0104,-0.0509,-0.0234
4894,-1.0113,0.0124,0.0310,-0.0256,-0.0204,-0.0082
4904,-1.0077,0.0070,0.0358,0.0049,-0.0509,0.0224
4914,-1.0082,0.0092,0.0290,0.0049,-0.0509,0.0529
4924,-1.0113,0.0119,0.0242,0.0202,0.0407,0.0071
4934,-1.0082,0.0109,0.0324,-0.0104,0.0865,-0.0234
4944,-1.0050,0.0148,0.0283,-0.0256,0.1170,-0.0234
4954,-1.0131,0.0104,0.0227,-0.0104,0.1170,0.0224
4964,-1.0101,0.0070,0.0242,-0.0409,0.0254,-0.0845
4974,-1.0072,0.0090,0.0273,-0.0104,-0.1425,0.0071
4984,-1.0086,0.0134,0.0280,0.0049,-0.0204,-0.0540
4994,-1.0101,0.0116,0.0218,0.0049,0.0254,-0.0082
5004,-1.0113,0.0099,0.0225,-0.0715,0.0407,0.0071
5014,-1.0094,0.0092,0.0215,-0.0562,0.0254,0.0071
5024,-1.0106,0.0097,0.0268,0.0202,-0.0204,0.0376
5034,-1.0082,0.0068,0.0288,0.0049,-0.0204,0.0682
5044,-1.0069,0.0094,0.0273,-0.0256,-0.0356,0.0682
5054,-1.0074,0.0070,0.0312,-0.0104,-0.0051,0.0376
5064,-1.0074,0.0075,0.0273,0.0660,-0.0051,0.0834
5074,-1.0140,0.0109,0.0290,0.0202,0.0102,0.1140
5084,-1.0089,0.0126,0.0295,0.0660,0.0254,0.0987
5094,-1.0089,0.0087,0.0312,-0.0104,0.0407,0.0987
5104,-1.0060,0.0134,0.0300,0.0354,0.0560,0.0071
5114,-1.0055,0.0109,0.0268,-0.1020,0.0102,-0.0082
5124,-1.0040,0.0112,0.0237,-0.0256,-0.0204,-0.0234
5134,-1.0057,0.0136,0.0329,-0.0867,0.0254,-0.0540
5144,-1.0047,0.0099,0.0283,-0.0256,-0.0356,-0.0387
5154,-1.0072,0.0109,0.0249,-0.0409,0.0254,-0.0692
5164,-1.0086,0.0102,0.0242,-0.0409,0.0865,-0.0234
5174,-1.0064,0.0090,0.0271,-0.0256,0.1170,-0.0845
5184,-1.0079,0.0075,0.0285,0.0202,0.0712,-0.0998
5194,-1.0096,0.0097,0.0256,-0.0409,-0.0204,0.0224
5204,-1.0096,0.0094,0.0266,-0.0715,-0.0051,0.0376
5214,-1.0067,0.0068,0.0256,-0.0104,-0.0356,0.0071
5224,-1.0084,0.0075,0.0322,0.0507,0.0254,-0.0234
5234,-1.0091,0.0104,0.0218,0.0507,0.0407,-0.0692
5244,-1.0086,0.0124,0.0249,-0.0104,-0.0051,-0.0387
5254,-1.0064,0.0087,0.0285,-0.0104,0.0865,0.0224
5264,-1.0111,0.0104,0.0293,0.0049,-0.0051,0.0682
5274,-1.0072,0.0087,0.0312,-0.0104,0.0254,-0.0234
5284,-1.0082,0.0080,0.0324,0.0507,0.0712,0.0224
5294,-1.0091,0.0085,0.0283,-0.0256,0.1018,-0.0387
5304,-1.0089,0.0097,0.0227,0.0049,0.1323,0.0224
5314,-1.0072,0.0131,0.0264,0.0507,0.0407,-0.0082
5324,-1.0086,0.0136,0.0336,0.0354,0.1628,0.0071
5334,-1.0074,0.0126,0.0285,-0.0562,0.1323,-0.0692
5344,-1.0069,0.0087,0.0261,-0.0562,0.1170,-0.0845
5354,-1.0118,0.0094,0.0268,-0.0867,0.0865,0.0071
5364,-1.0128,0.0087,0.0247,-0.0104,0.0712,-0.0082
5374,-1.0094,0.0060,0.0288,0.0049,0.0102,0.0071
5384,-1.0052,0.0065,0.0235,0.0507,-0.0204,-0.0082
5394,-1.0094,0.0087,0.0227,0.0354,-0.0051,0.0376
5404,-1.0091,0.0085,0.0264,0.1118,0.0712,0.0071
5414,-1.0082,0.0092,0.0271,0.0660,-0.1578,-0.0234
5424,-1.0069,0.0107,0.0295,0.0202,0.0102,-0.0845
5434,-1.0055,0.0073,0.0225,-0.0867,-0.0662,-0.0845
5444,-1.0064,0.0114,0.0326,0.0049,0.0712,-0.0234
5454,-1.0089,0.0087,0.0329,0.0507,0.0102,-0.0387
5464,-1.0079,0.0075,0.0254,-0.0715,0.0254,-0.0082
5474,-1.0099,0.0102,0.0254,0.0660,0.0102,0.0529
5484,-1.0099,0.0114,0.0317,0.0812,0.0102,-0.0082
5494,-1.0077,0.0163,0.0271,0.1118,0.0865,0.0071
5504,-1.0069,0.0124,0.0273,0.0202,0.1476,0.0071
5514,-1.0101,0.0068,0.0225,-0.1020,0.0865,0.0376
5524,-1.0101,0.0134,0.0295,0.0049,0.0102,-0.0082
5534,-1.0123,0.0104,0.0235,-0.0715,-0.0815,-0.0387
5544,-1.0084,0.0082,0.0348,0.0049,-0.0662,-0.0387
5554,-1.0042,0.0090,0.0310,0.0812,-0.0356,0.0071
5564,-1.0089,0.0121,0.0247,0.0202,0.1323,-0.0234
5574,-1.0082,0.0116,0.0271,0.0812,0.0102,0.0071
5584,-1.0069,0.0119,0.0225,0.0660,0.0102,-0.0387
5594,-0.9956,0.0129,0.0339,-0.0715,-0.0509,0.0071
5604,-1.0121,0.0112,0.0276,-0.0409,-0.0662,0.0071
5614,-1.0077,0.0087,0.0295,-0.0562,-0.1120,0.0834
5624,-1.0099,0.0102,0.0276,-0.0562,-0.0204,0.0376
5634,-1.0074,0.0075,0.0319,-0.0562,0.0407,-0.0540
5644,-1.0128,0.0092,0.0302,0.0049,0.0560,-0.0234
5654,-1.0086,0.0063,0.0336,0.0812,0.0102,-0.0540
5664,-1.0101,0.0085,0.0242,-0.0715,-0.0204,0.0071
5674,-1.0094,0.0094,0.0295,-0.0867,-0.1120,0.0224
5684,-1.0086,0.0065,0.0249,-0.0256,-0.0662,-0.0234
5694,-1.0072,0.0070,0.0293,0.0049,-0.0204,0.0376
5704,-1.0091,0.0085,0.0310,-0.0409,0.0712,-0.0387
5714,-1.0086,0.0099,0.0273,0.0354,0.0560,0.0224
5724,-1.0104,0.0119,0.0290,0.0049,0.0560,-0.0082
5734,-1.0111,0.0073,0.0310,-0.0715,0.0712,-0.0234
5744,-1.0077,0.0116,0.0268,-0.1020,0.0712,0.0071
5754,-1.0131,0.0055,0.0256,-0.0867,0.1323,0.0071
5764,-1.0116,0.0109,0.0302,-0.0409,0.0712,-0.0082
5774,-1.0060,0.0073,0.0278,0.0354,0.0712,0.0224
5784,-1.0126,0.0102,0.0336,0.0507,0.0560,0.0224
5794,-1.0072,0.0097,0.0261,0.0507,-0.0204,-0.0387
5804,-1.0089,0.0129,0.0278,0.0660,-0.0204,-0.0387
5814,-1.0126,0.0053,0.0198,0.0202,-0.0662,-0.0082
5824,-1.0064,0.0109,0.0288,0.1118,-0.0509,0.0376
5834,-1.0060,0.0082,0.0230,0.0049,-0.0509,0.0376
5844,-1.0084,0.0085,0.0290,-0.0256,-0.0051,-0.0387
5854,-1.0111,0.0097,0.0343,0.0049,-0.0509,-0.0082
5864,-1.0167,0.0151,0.0283,0.0049,-0.0204,0.0529
5874,-1.0069,0.0114,0.0283,-0.0104,0.0102,0.0071
5884,-1.0099,0.0092,0.0280,0.0660,-0.0356,-0.0387
5894,-1.0089,0.0109,0.0280,0.0049,-0.0356,-0.0540
5904,-1.0118,0.0082,0.0302,0.0049,-0.0204,0.1598
5914,-1.0079,0.0116,0.0295,0.0202,-0.0204,0.0682
5924,-1.0096,0.0063,0.0247,0.0354,0.0865,0.0682
5934,-1.0104,0.0102,0.0239,-0.0256,0.0407,0.0529
5944,-1.0101,0.0102,0.0305,0.0354,0.0254,0.0224
5954,-1.0136,0.0094,0.0239,-0.0867,0.0407,0.0071
5964,-1.0086,0.0075,0.0239,0.0202,-0.0662,-0.0845
5974,-1.0104,0.0104,0.0268,-0.0256,-0.1425,-0.0234
5984,-1.0060,0.0102,0.0273,-0.0256,-0.1120,0.0376
5994,-1.0057,0.0097,0.0266,0.0049,-0.0815,0.0529
6004,-1.0069,0.0119,0.0266,0.0202,-0.0051,0.0529
6014,-1.0057,0.0092,0.0339,0.0354,0.0865,-0.0234
6024,-1.0050,0.0099,0.0341,0.0660,0.0254,-0.0387
6034,-1.0089,0.0104,0.0310,0.0049,-0.0051,0.0682
6044,-1.0106,0.0097,0.0305,-0.0104,0.0407,0.0682
6054,-1.0082,0.0102,0.0329,0.0049,0.1476,-0.0234
6064,-1.0086,0.0092,0.0227,0.0507,0.1170,-0.0082
6074,-1.0062,0.0121,0.0242,0.0202,0.0712,0.0224
6084,-1.0106,0.0099,0.0242,0.0202,-0.0051,-0.0540
6094,-1.0064,0.0141,0.0295,-0.0562,0.0560,0.0071
6104,-1.0086,0.0107,0.0266,-0.0562,0.0254,-0.0692
6114,-1.0099,0.0080,0.0237,-0.0256,0.0102,-0.0998
6124,-1.0099,0.0051,0.0276,-0.0104,0.0560,-0.0692
6134,-1.0101,0.0041,0.0254,-0.0256,-0.0051,-0.0234
6144,-1.0067,0.0051,0.0326,-0.0256,0.0254,-0.0540
6154,-1.0040,0.0080,0.0387,0.0507,0.0102,0.0224
6164,-1.0121,0.0129,0.0276,0.0202,0.0254,0.0529
6174,-1.0074,0.0109,0.0290,0.0507,-0.0051,0.0071
6184,-1.0089,0.0092,0.0259,-0.1020,0.0254,-0.0082
6194,-1.0089,0.0109,0.0312,-0.1020,-0.0051,0.0987
6204,-1.0079,0.0138,0.0288,-0.1325,0.0560,0.0987
6214,-1.0069,0.0109,0.0295,-0.0256,0.0712,0.0834
6224,-1.0082,0.0112,0.0283,-0.0256,0.0865,0.0071
6234,-1.0082,0.0090,0.0273,0.0507,0.0407,-0.0234
6244,-1.0072,0.0112,0.0239,0.0812,0.0865,-0.0234
6254,-1.0072,0.0102,0.0259,0.0202,0.0560,-0.0234
6264,-1.0086,0.0141,0.0276,0.0354,0.0254,0.0224
6274,-1.0116,0.0126,0.0283,0.0507,0.0254,0.0071
6284,-1.0086,0.0075,0.0278,-0.0256,0.0712,-0.0082
6294,-1.0033,0.0094,0.0254,-0.0104,0.0407,-0.0387
6304,-1.0069,0.0065,0.0288,0.0049,0.1323,0.0224
6314,-1.0069,0.0063,0.0239,0.1270,0.0560,-0.0234
6324,-1.0062,0.0102,0.0295,0.0049,-0.0356,0.0529
6334,-1.0096,0.0104,0.0251,0.0202,-0.0662,0.0071
6344,-1.0091,0.0099,0.0346,0.0660,-0.0051,0.0224
6354,-1.0101,0.0143,0.0271,0.0049,-0.0509,-0.0082
6364,-1.0094,0.0116,0.0307,0.0049,0.0712,-0.0082
6374,-1.0077,0.0134,0.0280,0.0507,0.0712,0.0376
6384,-1.0123,0.0114,0.0268,0.0660,-0.0051,0.0224
6394,-1.0153,0.0131,0.0297,0.0507,0.0560,-0.0234
6404,-1.0109,0.0114,0.0256,0.0202,-0.0204,-0.0540
6414,-1.0138,0.0121,0.0271,-0.0562,0.0865,-0.0387
6424,-1.0086,0.0136,0.0251,-0.0409,0.0865,0.0071
6434,-1.0113,0.0090,0.0230,-0.0104,0.0254,0.0071
6444,-1.0072,0.0107,0.0285,-0.0562,0.0254,-0.0387
6454,-1.0055,0.0063,0.0305,-0.0256,0.0254,-0.0845
6464,-1.0047,0.0085,0.0341,-0.0104,0.0865,-0.0234
6474,-1.0099,0.0109,0.0283,-0.0104,0.0560,-0.0387
6484,-1.0084,0.0077,0.0293,0.0049,0.0407,0.0071
6494,-1.0072,0.0099,0.0268,0.0354,0.0865,-0.0234
6504,-1.0126,0.0099,0.0237,-0.0715,0.0865,0.0529
6514,-1.0104,0.0131,0.0232,-0.0256,-0.0356,0.0071
6524,-1.0096,0.0087,0.0280,-0.0256,-0.0509,-0.0540
6534,-1.0072,0.0073,0.0310,-0.0409,-0.0356,0.0224
6544,-1.0096,0.0136,0.0278,0.0049,-0.0509,-0.0082
6554,-1.0123,0.0136,0.0295,-0.0409,0.0712,-0.0540
6564,-1.0099,0.0141,0.0293,0.0354,0.0865,0.0376
6574,-1.0104,0.0134,0.0305,-0.0104,-0.0204,0.0071
6584,-1.0106,0.0094,0.0368,0.0354,-0.0815,-0.0692
6594,-1.0064,0.0082,0.0266,-0.0104,-0.1273,0.0071
6604,-1.0050,0.0075,0.0307,-0.0715,-0.0509,0.0071
6614,-1.0084,0.0068,0.0310,0.0507,0.0560,-0.0540
6624,-1.0060,0.0068,0.0295,0.0049,0.0254,-0.0540
6634,-1.0099,0.0053,0.0293,0.0354,0.0560,0.0376
6644,-1.0069,0.0077,0.0285,-0.0409,0.0407,0.0987
6654,-1.0091,0.0143,0.0259,-0.0256,0.1170,0.0071
6664,-1.0079,0.0082,0.0300,-0.0256,0.1018,0.0682
6674,-1.0096,0.0099,0.0278,-0.0562,0.0712,-0.0234
6684,-1.0109,0.0097,0.0276,-0.0104,0.0102,0.0376
6694,-1.0116,0.0143,0.0210,0.0202,-0.0356,-0.0082
6704,-1.0086,0.0082,0.0242,0.0202,-0.0051,-0.0540
6714,-1.0084,0.0121,0.0305,-0.0104,-0.0051,-0.0082
6724,-1.0074,0.0085,0.0314,0.0507,0.0102,0.0071
6734,-1.0123,0.0097,0.0307,0.0354,-0.0204,0.0071
6744,-1.0069,0.0075,0.0239,0.0202,-0.1120,-0.0540
6754,-1.0118,0.0080,0.0307,-0.0256,-0.0356,0.0376
6764,-1.0096,0.0136,0.0322,-0.0715,0.0560,0.0834
6774,-1.0116,0.0080,0.0341,-0.0867,0.1170,-0.0082
6784,-1.0062,0.0102,0.0290,-0.0867,0.0102,0.0224
6794,-1.0116,0.0136,0.0314,0.0202,-0.0204,0.0529
6804,-1.0072,0.0126,0.0297,0.0507,-0.0967,-0.0540
6814,-1.0047,0.0129,0.0288,-0.0715,-0.0204,-0.0845
6824,-1.0079,0.0119,0.0266,-0.0256,0.0712,-0.0234
6834,-1.0109,0.0134,0.0261,-0.0562,0.1323,0.1140
6844,-1.0084,0.0104,0.0276,-0.0104,0.1476,0.0682
6854,-1.0128,0.0109,0.0244,-0.0409,0.1170,0.0224
6864,-1.0089,0.0119,0.0261,0.0049,-0.0051,0.0071
6874,-1.0074,0.0094,0.0225,0.0507,-0.0051,-0.0540
6884,-1.0084,0.0060,0.0247,0.0049,-0.0967,-0.0234
6894,-1.0033,0.0112,0.0305,-0.0409,0.0102,-0.0234
6904,-1.0116,0.0114,0.0242,0.0049,0.0865,0.0376
6914,-1.0116,0.0107,0.0312,0.0049,0.0407,0.0682
6924,-1.0074,0.0102,0.0259,-0.0104,0.0254,0.1598
6934,-1.0084,0.0080,0.0319,0.0354,0.0102,0.0987
6944,-1.0099,0.0134,0.0285,-0.0104,0.0560,0.0987
6954,-1.0045,0.0073,0.0285,0.0507,0.0254,-0.0387
6964,-1.0052,0.0138,0.0312,0.0507,-0.0051,-0.0082
6974,-1.0067,0.0129,0.0297,0.0660,0.0865,0.0071
6984,-1.0079,0.0134,0.0290,-0.0256,0.0407,-0.0387
6994,-1.0118,0.0092,0.0346,0.0202,0.1323,-0.0387
7004,-1.0047,0.0092,0.0266,-0.0562,0.0102,0.0071
7014,-1.0118,0.0077,0.0280,-0.0256,0.1170,-0.0845
7024,-1.0086,0.0109,0.0322,0.0049,0.0560,-0.0234
7034,-1.0074,0.0053,0.0297,0.0812,0.1323,0.0224
7044,-1.0118,0.0075,0.0271,-0.0409,0.0865,-0.0692
7054,-1.0128,0.0068,0.0237,0.0049,0.0560,-0.0540
7064,-1.0082,0.0077,0.0259,0.0049,0.0102,-0.0540
7074,-1.0069,0.0087,0.0232,0.0202,-0.0356,0.0224
7084,-1.0106,0.0063,0.0278,-0.0256,-0.0967,0.0682
7094,-1.0079,0.0099,0.0312,-0.0867,-0.1273,0.0682
7104,-1.0060,0.0099,0.0305,0.0049,-0.0967,-0.0234
7114,-1.0074,0.0126,0.0341,-0.0562,-0.0662,0.0071
7124,-1.0050,0.0143,0.0283,0.0507,0.0102,-0.0082
7134,-1.0091,0.0146,0.0261,0.0507,0.0254,-0.0234
7144,-1.0091,0.0090,0.0331,-0.0562,-0.0204,-0.0692
7154,-1.0116,0.0094,0.0266,-0.0715,-0.0356,-0.0692
7164,-1.0074,0.0138,0.0218,-0.1631,-0.0509,-0.0387
7174,-1.0104,0.0116,0.0232,-0.0409,0.0407,0.0071
7184,-1.0074,0.0112,0.0290,-0.0256,0.1018,0.0224
7194,-1.0089,0.0155,0.0251,-0.0409,0.0560,-0.0082
7204,-1.0050,0.0112,0.0230,-0.0256,0.1018,-0.0234
7214,-1.0091,0.0075,0.0251,0.0202,0.0865,-0.0234
7224,-1.0084,0.0070,0.0237,0.0354,-0.0051,0.0071
7234,-1.0067,0.0063,0.0264,-0.0715,-0.0662,-0.0387
7244,-1.0101,0.0055,0.0278,-0.0867,-0.0204,-0.0387
7254,-1.0094,0.0053,0.0218,0.0507,-0.0509,-0.0234
7264,-1.0138,0.0099,0.0155,0.0202,-0.0509,-0.1150
7274,-1.0123,0.0114,0.0198,0.0660,-0.0509,-0.0234
7284,-1.0091,0.0116,0.0334,0.0202,0.0254,0.0834
7294,-1.0089,0.0151,0.0271,0.0354,-0.0815,0.0682
7304,-1.0067,0.0114,0.0288,-0.0104,-0.0356,0.0224
7314,-1.0060,0.0080,0.0329,-0.1173,-0.0356,-0.0082
7324,-1.0060,0.0109,0.0368,-0.0562,0.0254,0.0071
7334,-1.0118,0.0085,0.0384,0.0049,0.0102,0.0071
7344,-1.0069,0.0094,0.0310,-0.0562,-0.0204,-0.0234
7354,-1.0121,0.0073,0.0355,-0.0562,0.0407,-0.0234
7364,-1.0040,0.0104,0.0283,-0.0562,0.0254,-0.0387
7374,-1.0079,0.0129,0.0343,-0.0867,0.0560,-0.0845
7384,-1.0118,0.0080,0.0232,-0.0715,0.1628,0.0071
7394,-1.0084,0.0077,0.0326,-0.0867,0.1476,0.0682
7404,-1.0084,0.0099,0.0251,0.0354,0.1018,0.0529
7414,-1.0074,0.0082,0.0297,-0.0104,0.1018,0.0682
7424,-1.0045,0.0065,0.0290,0.0049,0.0407,0.0682
7434,-1.0094,0.0097,0.0249,0.0202,-0.0356,0.0834
7444,-1.0094,0.0063,0.0247,0.0049,0.0102,-0.0082
7454,-1.0106,0.0073,0.0283,0.0965,0.0102,-0.0845
7464,-1.0104,0.0119,0.0235,-0.0256,-0.0051,0.0071
7474,-1.0140,0.0099,0.0271,0.0354,-0.0051,0.0071
7484,-1.0064,0.0077,0.0256,-0.0409,-0.0204,-0.0234
7494,-1.0055,0.0104,0.0319,0.0507,0.0102,0.0071
7504,-1.0069,0.0114,0.0305,-0.0562,0.0102,-0.0692
7514,-1.0091,0.0104,0.0278,-0.0104,-0.0051,-0.0082
7524,-1.0099,0.0075,0.0305,0.0660,-0.0356,0.0224
7534,-1.0069,0.0080,0.0222,-0.0256,-0.0051,-0.0234
7544,-1.0153,0.0102,0.0249,0.0354,0.0560,-0.0234
7554,-1.0072,0.0104,0.0297,-0.0104,0.0102,-0.0692
7564,-1.0096,0.0112,0.0244,-0.0715,0.0102,-0.0234
7574,-1.0082,0.0099,0.0215,0.0049,0.0407,0.0071
7584,-1.0067,0.0090,0.0259,0.0202,0.0407,0.0224
7594,-1.0074,0.0087,0.0239,-0.0104,-0.0204,-0.0540
7604,-1.0116,0.0112,0.0302,-0.0104,-0.0051,-0.0540
7614,-1.0079,0.0080,0.0254,-0.0562,-0.1120,-0.0234
7624,-1.0086,0.0063,0.0249,-0.0409,0.0254,-0.0387
7634,-1.0091,0.0085,0.0288,-0.0256,0.0254,0.0071
7644,-1.0082,0.0112,0.0293,0.0049,0.0102,-0.0234
7654,-1.0091,0.0131,0.0278,0.0202,0.0865,-0.0387
7664,-1.0111,0.0114,0.0324,0.0660,0.1018,0.0071
7674,-1.0123,0.0138,0.0297,0.0660,0.1018,0.0376
7684,-1.0060,0.0090,0.0305,-0.0104,-0.0051,0.0529
7694,-1.0091,0.0085,0.0278,0.0049,0.0102,0.1140
7704,-1.0064,0.0077,0.0293,0.0202,0.0712,0.0529
7714,-1.0064,0.0099,0.0259,-0.0256,0.0560,0.0224
7724,-1.0089,0.0087,0.0222,0.0049,0.0407,0.0376
7734,-1.0082,0.0092,0.0261,-0.0409,0.0407,-0.0082
7744,-1.0089,0.0119,0.0264,-0.0715,-0.0204,0.0376
7754,-1.0094,0.0126,0.0285,0.0049,-0.0051,0.0987
7764,-1.0096,0.0094,0.0273,-0.0562,0.0560,0.0224
7774,-1.0055,0.0109,0.0261,0.0049,-0.0051,0.0376
7784,-1.0082,0.0077,0.0278,0.0202,-0.0356,-0.0692
7794,-1.0091,0.0090,0.0259,0.0202,-0.0204,-0.0082
7804,-1.0077,0.0092,0.0225,-0.1020,0.1018,-0.0387
7814,-1.0064,0.0075,0.0300,-0.1325,0.0865,-0.0387
7824,-1.0064,0.0065,0.0259,0.0049,0.0254,-0.0234
7834,-1.0104,0.0080,0.0341,-0.0256,-0.0051,0.0529
7844,-1.0106,0.0090,0.0227,0.0965,0.0560,0.0529
7854,-1.0131,0.0080,0.0247,-0.0256,-0.0051,0.0071
7864,-1.0089,0.0121,0.0268,0.0660,-0.0662,0.0529
7874,-1.0086,0.0124,0.0334,0.0507,-0.0051,0.0224
7884,-1.0089,0.0126,0.0285,0.0507,0.0254,-0.0845
7894,-1.0064,0.0124,0.0271,-0.0409,0.0407,-0.0540
7904,-1.0067,0.0090,0.0341,-0.0256,-0.0356,0.0071
7914,-1.0042,0.0075,0.0317,-0.0256,-0.0204,0.0376
7924,-0.9998,0.0073,0.0363,-0.0256,0.0254,0.0376
7934,-1.0052,0.0102,0.0302,-0.0562,0.0102,-0.0082
7944,-1.0094,0.0099,0.0285,-0.0867,0.0712,-0.0082
7954,-1.0101,0.0051,0.0205,0.0354,-0.0051,0.0071
7964,-1.0099,0.0109,0.0314,-0.0104,0.0102,-0.0540
7974,-1.0116,0.0124,0.0230,0.0660,-0.0509,0.1140
7984,-1.0079,0.0077,0.0280,0.0660,0.0102,0.0529
7994,-1.0069,0.0094,0.0285,-0.0562,-0.0356,0.0224
8004,-1.0064,0.0082,0.0300,-0.1173,-0.0509,0.0071
8014,-1.0089,0.0065,0.0280,-0.0104,0.0102,-0.0387
8024,-1.0084,0.0082,0.0264,-0.0409,0.0254,-0.0234
8034,-1.0118,0.0114,0.0295,0.0202,-0.0051,0.0071
8044,-1.0096,0.0092,0.0254,-0.0562,0.0102,-0.0082
8054,-1.0091,0.0134,0.0295,0.0049,0.0254,0.0224
8064,-1.0064,0.0092,0.0283,0.0202,0.0865,0.0376
8074,-1.0111,0.0080,0.0280,0.0507,0.0560,-0.0387
8084,-1.0082,0.0063,0.0297,0.0049,0.0865,-0.0540
8094,-1.0052,0.0112,0.0264,-0.0409,0.0560,0.0071
8104,-1.0091,0.0136,0.0271,-0.0562,0.1323,0.0071
8114,-1.0101,0.0077,0.0280,-0.0562,0.1018,-0.0387
8124,-1.0074,0.0099,0.0259,-0.0562,-0.0204,-0.0082
8134,-1.0096,0.0092,0.0268,0.0049,-0.0815,0.0529
8144,-1.0086,0.0082,0.0314,-0.0562,-0.0204,-0.0234
8154,-1.0106,0.0097,0.0225,-0.0562,-0.0204,-0.0082
8164,-1.0040,0.0102,0.0290,0.0202,0.0254,-0.0540
8174,-1.0089,0.0058,0.0271,-0.0104,0.0102,-0.0082
8184,-1.0077,0.0109,0.0273,0.0202,0.0407,-0.0845
8194,-1.0067,0.0092,0.0259,0.0202,-0.0051,-0.0387
8204,-1.0116,0.0073,0.0256,-0.0256,-0.0051,-0.0387
8214,-1.0101,0.0082,0.0264,-0.0104,0.0865,-0.0082
8224,-1.0072,0.0090,0.0220,-0.0562,0.0254,-0.0082
8234,-1.0079,0.0092,0.0254,0.0049,0.1170,-0.0387
8244,-1.0050,0.0090,0.0293,-0.0104,0.0560,-0.0540
8254,-1.0035,0.0087,0.0285,0.0049,0.1170,-0.0540
8264,-1.0072,0.0073,0.0251,-0.1020,0.0865,-0.0998
8274,-1.0079,0.0092,0.0261,-0.0715,0.0254,-0.0082
8284,-1.0101,0.0092,0.0251,-0.0409,-0.0662,-0.0082
8294,-1.0069,0.0134,0.0297,-0.0104,0.0407,-0.0387
8304,-1.0057,0.0121,0.0276,0.0049,0.0102,-0.0387
8314,-1.0062,0.0126,0.0283,-0.0104,-0.0967,-0.0234
8324,-1.0118,0.0087,0.0251,0.0354,0.0407,0.0071
8334,-1.0055,0.0104,0.0247,0.0354,-0.0204,0.0224
8344,-1.0302,0.0119,0.0300,0.0202,-0.0662,-0.0540
8354,-1.0047,0.0102,0.0278,-0.0409,0.0254,0.0376
8364,-1.0037,0.0099,0.0295,-0.0867,0.0102,0.0224
8374,-1.0099,0.0060,0.0329,-0.1173,0.0254,0.0529
8384,-1.0099,0.0092,0.0276,0.0049,0.0712,-0.0692
8394,-1.0109,0.0109,0.0191,0.0049,0.0407,0.0529
8404,-1.0104,0.0107,0.0288,0.0049,-0.0356,-0.0082
8414,-1.0064,0.0073,0.0251,-0.0715,-0.0051,-0.0234
8424,-1.0062,0.0065,0.0329,-0.0562,0.0254,-0.0540
8434,-1.0082,0.0099,0.0312,0.0049,0.0254,-0.0387
8444,-1.0084,0.0082,0.0336,-0.0104,-0.0051,-0.0234
8454,-1.0101,0.0092,0.0235,-0.0562,-0.0051,-0.0692
8464,-1.0111,0.0094,0.0186,-0.0256,0.0560,-0.0234
8474,-1.0064,0.0099,0.0251,0.0049,0.0712,0.0071
8484,-1.0094,0.0124,0.0249,-0.0562,0.0254,0.0224
8494,-1.0069,0.0075,0.0271,-0.0562,-0.0051,-0.0387
8504,-1.0140,0.0114,0.0283,-0.0104,-0.0356,-0.0692
8514,-1.0106,0.0063,0.0290,0.0354,0.0712,-0.0540
8524,-1.0113,0.0075,0.0242,0.0507,-0.0356,-0.0692
8534,-1.0052,0.0104,0.0242,0.0660,-0.0662,-0.0234
8544,-1.0079,0.0085,0.0297,0.0049,0.1170,-0.0387
8554,-1.0106,0.0109,0.0227,0.0812,0.1323,-0.0692
8564,-1.0118,0.0121,0.0271,0.0049,0.0712,-0.0540
8574,-1.0128,0.0112,0.0256,-0.0104,0.0712,0.0224
8584,-1.0094,0.0104,0.0249,-0.0104,0.1018,0.0071
8594,-1.0094,0.0080,0.0297,-0.0409,0.0560,-0.0540
8604,-1.0099,0.0085,0.0247,-0.0104,0.0712,-0.0234
8614,-1.0104,0.0109,0.0256,-0.0104,0.1323,0.0682
8624,-1.0077,0.0097,0.0271,-0.0562,0.1018,0.0376
8634,-1.0091,0.0124,0.0268,-0.0256,0.1018,-0.0387
8644,-1.0094,0.0134,0.0305,-0.0256,0.0560,-0.0387
8654,-1.0067,0.0126,0.0261,-0.0409,0.0560,-0.0692
8664,-1.0072,0.0075,0.0276,0.0049,0.0560,-0.0082
8674,-1.0084,0.0043,0.0268,-0.0409,0.0560,-0.0540
8684,-1.0062,0.0109,0.0280,-0.0562,-0.0204,0.0834
8694,-1.0109,0.0080,0.0254,-0.0715,-0.0204,0.0682
8704,-1.0055,0.0094,0.0273,-0.0562,-0.0509,-0.0234
8714,-1.0060,0.0121,0.0264,-0.0104,-0.0204,0.0071
8724,-1.0035,0.0090,0.0283,-0.0409,0.0407,-0.0387
8734,-1.0067,0.0136,0.0293,-0.0256,0.1170,0.0224
8744,-1.0109,0.0102,0.0297,-0.0867,0.2086,0.0071
8754,-1.0050,0.0121,0.0276,-0.0715,0.1476,0.0071
8764,-1.0118,0.0099,0.0215,-0.0409,0.1018,0.0224
8774,-1.0128,0.0080,0.0247,0.0354,-0.0204,0.0987
8784,-1.0084,0.0090,0.0215,0.0354,-0.0662,0.0376
8794,-1.0091,0.0114,0.0249,-0.0409,-0.1120,0.0071
8804,-1.0101,0.0094,0.0222,0.0049,-0.0204,0.0224
8814,-1.0138,0.0134,0.0266,0.0049,0.0102,0.0071
8824,-1.0072,0.0136,0.0293,0.0507,0.0102,0.0376
8834,-1.0091,0.0102,0.0264,-0.1173,-0.0967,0.0071
8844,-1.0089,0.0068,0.0237,-0.0715,-0.0815,0.0834
8854,-1.0091,0.0099,0.0268,-0.0256,-0.0356,-0.0234
8864,-1.0106,0.0090,0.0331,-0.0104,-0.0204,-0.0845
8874,-1.0121,0.0099,0.0290,-0.1020,-0.0356,-0.0692
8884,-1.0086,0.0094,0.0305,-0.0256,-0.0051,0.0071
8894,-1.0121,0.0109,0.0239,0.0354,0.0254,-0.0387
8904,-1.0067,0.0087,0.0290,-0.0715,0.0102,-0.0540
8914,-1.0069,0.0119,0.0307,-0.0562,-0.0051,-0.0082
8924,-1.0079,0.0065,0.0283,-0.1020,0.0560,0.0529
8934,-1.0118,0.0099,0.0249,-0.1325,0.0407,0.0224
8944,-1.0089,0.0073,0.0305,-0.1173,-0.0204,0.0224
8954,-1.0074,0.0087,0.0293,-0.0867,0.0407,-0.0387
8964,-1.0121,0.0112,0.0205,-0.0256,0.0712,-0.0540
8974,-1.0256,0.0053,0.0198,-0.0256,0.0407,-0.0234
8984,-1.0106,0.0109,0.0297,0.0202,0.0560,-0.0540
8994,-1.0091,0.0129,0.0273,-0.0409,-0.0204,0.0071
9004,-1.0138,0.0085,0.0266,-0.0562,-0.0662,-0.0845
9014,-1.0064,0.0114,0.0297,-0.0867,-0.0967,-0.0082
9024,-1.0086,0.0104,0.0341,-0.0256,-0.0509,-0.0540
9034,-1.0104,0.0094,0.0271,0.0507,-0.0815,0.0682
9044,-1.0116,0.0063,0.0271,0.0507,0.0865,-0.0234
9054,-1.0042,0.0165,0.0293,0.0202,0.0102,0.0224
9064,-1.0133,0.0087,0.0314,0.0354,-0.0356,0.0376
9074,-1.0057,0.0124,0.0295,-0.0409,-0.0509,-0.0387
9084,-1.0064,0.0063,0.0256,-0.0409,0.0560,-0.0387
9094,-1.0121,0.0075,0.0237,-0.0256,0.0102,-0.0082
9104,-1.0089,0.0038,0.0237,-0.1020,-0.0509,0.0071
9114,-1.0062,0.0043,0.0251,-0.0409,0.0254,0.0376
9124,-1.0091,0.0068,0.0191,-0.0409,0.0102,0.0376
9134,-1.0050,0.0107,0.0319,-0.0715,0.0102,-0.0540
9144,-1.0072,0.0099,0.0293,-0.0715,-0.0051,0.0071
9154,-1.0106,0.0094,0.0254,-0.0256,0.0407,0.0224
9164,-1.0062,0.0138,0.0329,-0.0867,0.0102,0.0376
9174,-1.0126,0.0092,0.0249,-0.0104,-0.0051,-0.0234
9184,-1.0067,0.0124,0.0293,0.0049,0.0102,-0.0692
9194,-1.0096,0.0129,0.0336,0.0354,-0.0051,0.0071
9204,-1.0091,0.0126,0.0310,0.0049,-0.0204,-0.0234
9214,-1.0118,0.0087,0.0276,0.0354,-0.0204,-0.0234
9224,-1.0037,0.0136,0.0271,0.0507,0.0407,-0.0234
9234,-1.0089,0.0107,0.0247,0.0354,0.0102,0.0224
9244,-1.0101,0.0104,0.0268,0.0049,0.0865,-0.0082
9254,-1.0042,0.0124,0.0213,-0.0562,0.0560,0.0376
9264,-1.0089,0.0090,0.0247,0.0049,0.0254,0.0682
9274,-1.0089,0.0082,0.0261,0.0507,-0.0051,-0.0234
9284,-1.0089,0.0136,0.0213,0.0354,0.0102,-0.0540
9294,-1.0096,0.0073,0.0244,0.0202,0.0865,0.0071
9304,-1.0086,0.0104,0.0256,-0.0562,0.0712,0.0071
9314,-1.0136,0.0075,0.0312,-0.0409,0.0254,0.0529
9324,-1.0077,0.0041,0.0220,-0.0256,-0.0204,-0.0234
9334,-1.0079,0.0063,0.0271,0.0354,-0.0662,-0.0387
9344,-1.0101,0.0080,0.0273,0.0507,-0.0967,-0.0692
9354,-1.0060,0.0097,0.0254,0.0507,-0.0204,0.0071
9364,-1.0055,0.0102,0.0283,-0.0104,-0.0204,-0.0540
9374,-1.0082,0.0090,0.0300,0.0354,-0.0509,-0.0540
9384,-1.0079,0.0116,0.0305,0.0507,-0.0662,-0.0234
9394,-1.0116,0.0126,0.0225,-0.0409,-0.0356,0.0834
9404,-1.0047,0.0104,0.0293,-0.0256,0.0254,-0.0234
9414,-1.0077,0.0102,0.0310,-0.0104,0.0407,-0.0082
9424,-1.0082,0.0048,0.0283,0.0202,0.0102,0.0071
9434,-1.0084,0.0082,0.0278,0.1118,0.0254,0.0071
9444,-1.0082,0.0077,0.0314,-0.0104,0.0102,-0.0234
9454,-1.0133,0.0085,0.0285,-0.0256,0.0712,0.0071
9464,-1.0118,0.0102,0.0288,0.0354,0.0712,0.0682
9474,-1.0109,0.0116,0.0297,0.0202,0.0254,0.0224
9484,-1.0086,0.0114,0.0278,0.0202,0.0254,-0.0082
9494,-1.0116,0.0109,0.0249,0.0507,-0.1273,-0.0082
9504,-1.0062,0.0087,0.0271,-0.0104,-0.0509,0.0376
9514,-1.0037,0.0055,0.0319,-0.1020,-0.0051,-0.0082
9524,-1.0113,0.0104,0.0280,0.0354,-0.0051,-0.0387
9534,-1.0101,0.0097,0.0271,0.0354,-0.0509,0.0224
9544,-1.0079,0.0063,0.0293,0.0354,-0.0967,-0.0082
9554,-1.0050,0.0080,0.0329,-0.0104,-0.0051,0.0071
9564,-1.0077,0.0151,0.0276,0.0202,0.0254,-0.0082
9574,-1.0040,0.0119,0.0293,0.0354,0.0712,0.0682
9584,-1.0106,0.0138,0.0232,0.0354,0.0102,0.0682
9594,-1.0074,0.0146,0.0266,-0.0104,0.0254,0.0834
9604,-1.0067,0.0073,0.0307,-0.0256,-0.0662,-0.0234
9614,-1.0045,0.0087,0.0242,-0.0256,-0.0662,-0.0082
9624,-1.0077,0.0077,0.0266,-0.0715,-0.0051,0.0682
9634,-1.0072,0.0087,0.0266,0.0049,0.0102,-0.0082
9644,-1.0089,0.0070,0.0283,0.0049,0.0712,0.0834
9654,-1.0089,0.0087,0.0179,0.0049,0.0102,0.0224
9664,-1.0074,0.0070,0.0271,0.0660,-0.0051,0.0224
9674,-1.0104,0.0070,0.0201,0.0354,-0.0815,0.0376
9684,-1.0072,0.0085,0.0317,0.0354,-0.0356,-0.0234
9694,-1.0084,0.0082,0.0300,-0.0715,0.0102,-0.0387
9704,-1.0086,0.0129,0.0280,-0.1020,0.0254,-0.0082
9714,-1.0145,0.0107,0.0264,0.0202,0.0254,-0.0387
9724,-1.0111,0.0107,0.0293,-0.0256,-0.1273,0.0071
9734,-1.0057,0.0107,0.0288,-0.0409,-0.0509,-0.0692
9744,-1.0089,0.0131,0.0297,-0.0256,0.0560,-0.0082
9754,-1.0082,0.0090,0.0341,0.0507,-0.0204,-0.0998
9764,-1.0060,0.0085,0.0312,0.0812,-0.0662,-0.0692
9774,-1.0082,0.0085,0.0220,0.0049,0.0560,-0.1150
9784,-1.0094,0.0116,0.0235,-0.0409,0.0407,-0.0387
9794,-1.0140,0.0112,0.0266,-0.0104,-0.0509,0.0376
9804,-1.0062,0.0099,0.0271,-0.0104,-0.0662,0.0071
9814,-1.0113,0.0090,0.0261,0.0507,-0.0051,-0.0234
9824,-1.0055,0.0094,0.0220,0.0507,-0.0509,-0.0692
9834,-1.0096,0.0097,0.0256,0.0202,-0.0815,-0.0387
9844,-1.0069,0.0082,0.0283,0.0049,-0.0815,-0.0387
9854,-1.0040,0.0124,0.0295,0.0049,-0.0815,-0.0692
9864,-1.0094,0.0058,0.0288,0.0660,-0.1120,0.0529
9874,-1.0057,0.0058,0.0271,0.0049,-0.0662,0.0682
9884,-1.0082,0.0082,0.0295,-0.0104,-0.0051,0.0224
9894,-1.0106,0.0107,0.0317,-0.0104,0.0102,-0.0692
9904,-1.0094,0.0124,0.0310,0.0202,-0.0509,-0.0082
9914,-1.0109,0.0114,0.0218,-0.0104,-0.0815,-0.0540
9924,-1.0104,0.0134,0.0225,0.0507,-0.0967,0.0224
9934,-1.0072,0.0131,0.0293,-0.0104,-0.0509,0.0376
9944,-1.0096,0.0060,0.0348,0.0202,-0.1120,-0.0540
9954,-1.0140,0.0112,0.0261,-0.0104,-0.0356,-0.0234
9964,-1.0077,0.0090,0.0189,0.0049,-0.0204,-0.0692
9974,-1.0096,0.0068,0.0317,-0.0562,-0.0356,-0.0998
9984,-1.0109,0.0063,0.0196,0.0660,-0.0662,-0.0845
9994,-1.0096,0.0065,0.0222,0.0202,-0.0815,-0.0540
10004,-1.0143,0.0070,0.0285,-0.0256,-0.1425,0.0224
10014,-1.0113,0.0114,0.0314,0.0507,-0.1731,-0.0998
10024,-1.0079,0.0107,0.0302,0.0812,-0.2036,-0.0387
10034,-1.0045,0.0114,0.0264,-0.0256,-0.2036,-0.1150
10044,-1.0128,0.0131,0.0324,0.0049,-0.2036,-0.2066
10054,-1.0091,0.0075,0.0251,0.0354,-0.2494,-0.0692
10064,-1.0101,0.0134,0.0351,0.0965,-0.2494,-0.1150
10074,-1.0010,0.0126,0.0329,0.0660,-0.1578,-0.0387
10084,-1.0138,0.0126,0.0285,0.1118,-0.1731,-0.0234
10094,-1.0042,0.0094,0.0302,0.0507,-0.0509,-0.0692
10104,-1.0055,0.0075,0.0271,0.0202,-0.0967,-0.0692
10114,-1.0104,0.0082,0.0312,0.0354,-0.0815,-0.0387
10124,-1.0072,0.0055,0.0244,0.0202,0.0407,-0.0692
10134,-1.0094,0.0048,0.0295,-0.0104,-0.0815,-0.1608
10144,-1.0089,0.0112,0.0203,0.0202,-0.0509,-0.0692
10154,-1.0042,0.0016,0.0278,0.0049,-0.1273,-0.0540
10164,-1.0089,0.0082,0.0307,0.0049,-0.1578,-0.0234
10174,-1.0045,0.0112,0.0181,-0.0409,-0.0356,-0.1303
10184,-1.0113,0.0065,0.0278,0.0660,-0.0967,-0.0234
10194,-1.0116,0.0094,0.0351,0.0507,-0.2036,-0.0082
10204,-1.0010,0.0141,0.0314,-0.0256,-0.0815,-0.0387
10214,-1.0111,0.0138,0.0280,0.0049,-0.1731,-0.0998
10224,-1.0062,0.0058,0.0295,0.0354,-0.1425,-0.0998
10234,-1.0072,0.0087,0.0280,-0.0104,-0.0204,-0.0234
10244,-1.0096,0.0121,0.0271,-0.0409,-0.0204,-0.1303
10254,-1.0194,0.0158,0.0239,-0.0409,0.0102,-0.0845
10264,-1.0018,0.0092,0.0305,-0.0867,-0.0662,-0.0692
10274,-1.0121,0.0099,0.0261,0.0202,-0.0662,-0.0387
10284,-1.0072,0.0094,0.0249,0.0202,-0.0662,-0.0234
10294,-1.0091,0.0082,0.0290,0.0354,-0.0204,0.0071
10304,-1.0077,0.0090,0.0295,0.0660,0.0254,-0.0540
10314,-1.0010,0.0109,0.0259,0.0812,-0.0204,-0.0387
10324,-1.0106,0.0068,0.0278,-0.0104,-0.0356,0.0224
10334,-1.0116,0.0080,0.0268,0.0660,0.0254,-0.0082
10344,-1.0113,0.0065,0.0259,-0.0867,0.0712,0.0376
10354,-1.0121,0.0085,0.0193,-0.0715,0.0712,-0.0692
10364,-1.0109,0.0070,0.0302,-0.0104,0.0407,-0.0387
10374,-1.0069,0.0053,0.0314,-0.0104,-0.0509,-0.0082
10384,-1.0069,0.0073,0.0293,0.0202,-0.0356,0.0071
10394,-1.0295,0.0082,0.0256,0.0354,0.0102,-0.0998
10404,-1.0033,0.0068,0.0261,0.0049,0.0102,-0.0540
10414,-1.0109,0.0131,0.0237,-0.0104,-0.0051,-0.0540
10424,-1.0082,0.0141,0.0264,-0.0256,-0.0204,-0.0234
10434,-1.0118,0.0114,0.0285,-0.0409,-0.0356,-0.0234
10444,-1.0084,0.0080,0.0377,-0.0409,-0.0509,-0.0082
10454,-1.0096,0.0048,0.0244,-0.0562,0.1018,0.0071
10464,-1.0079,0.0114,0.0307,-0.0256,0.0254,0.0071
10474,-1.0064,0.0082,0.0353,-0.0104,0.1323,-0.0082
10484,-1.0040,0.0087,0.0290,-0.0256,0.1934,-0.0692
10494,-1.0084,0.0119,0.0249,0.0202,0.1170,0.0224
10504,-1.0106,0.0082,0.0273,-0.0562,0.0560,-0.0234
10514,-1.0126,0.0092,0.0300,-0.1325,0.0865,0.0071
10524,-1.0121,0.0075,0.0184,-0.0409,0.0407,0.0071
10534,-1.0045,0.0077,0.0256,0.0049,-0.0662,-0.0234
10544,-1.0047,0.0055,0.0280,0.0354,-0.0815,-0.0540
10554,-1.0106,0.0109,0.0317,0.0660,-0.0967,-0.0540
10564,-1.0113,0.0107,0.0288,0.0354,0.0102,-0.0540
10574,-1.0113,0.0116,0.0341,0.0202,-0.0051,-0.1150
10584,-1.0084,0.0097,0.0300,-0.0256,-0.0204,-0.0540
10594,-1.0062,0.0119,0.0358,-0.0562,-0.0509,-0.0234
10604,-1.0067,0.0026,0.0300,-0.0715,-0.0509,0.0071
10614,-1.0060,0.0053,0.0326,0.0049,-0.0204,-0.0692
10624,-1.0064,0.0068,0.0324,-0.0104,0.0254,-0.0540
10634,-1.0069,0.0053,0.0365,0.0049,0.0560,0.0071
10644,-1.0123,0.0109,0.0322,0.0049,0.0712,-0.0387
10654,-1.0101,0.0102,0.0317,0.0354,0.0865,-0.0234
10664,-1.0069,0.0126,0.0266,0.0202,-0.0051,-0.0082
10674,-1.0096,0.0119,0.0300,-0.0562,0.0102,0.0376
10684,-1.0096,0.0077,0.0235,-0.0256,-0.0051,0.0224
10694,-1.0111,0.0082,0.0293,-0.1325,-0.0051,0.0224
10704,-1.0069,0.0085,0.0264,-0.0715,0.0407,-0.0387
10714,-1.0094,0.0109,0.0295,-0.0256,0.0865,0.0682
10724,-1.0072,0.0094,0.0280,-0.0562,0.1628,-0.0234
10734,-1.0109,0.0102,0.0271,-0.0104,0.1934,-0.0692
10744,-1.0101,0.0097,0.0295,0.0049,0.1170,-0.0692
10754,-1.0104,0.0055,0.0339,-0.0104,0.0712,-0.0387
10764,-1.0126,0.0058,0.0339,0.0507,-0.0967,-0.0540
10774,-1.0055,0.0055,0.0261,0.0660,-0.0509,-0.0387
10784,-1.0072,0.0077,0.0326,-0.0256,0.0407,-0.0845
10794,-1.0055,0.0060,0.0220,0.0049,0.0102,0.0376
10804,-1.0062,0.0109,0.0237,0.0049,-0.0051,0.0529
10814,-1.0150,0.0107,0.0215,-0.0104,0.0560,0.0529
10824,-1.0104,0.0097,0.0307,-0.0562,-0.0051,-0.0387
10834,-1.0045,0.0114,0.0273,0.0049,-0.0356,0.0224
10844,-1.0079,0.0085,0.0266,-0.0562,-0.0356,-0.0234
10854,-1.0045,0.0080,0.0259,0.0049,0.1018,-0.0540
10864,-1.0261,0.0048,0.0261,0.0049,0.1018,-0.0692
10874,-1.0035,0.0068,0.0295,0.0202,-0.0356,-0.0234
10884,-1.0111,0.0070,0.0244,0.0354,-0.0356,-0.0234
10894,-1.0082,0.0097,0.0261,-0.0562,0.0407,0.0529
10904,-1.0128,0.0090,0.0302,0.0354,-0.0509,-0.0998
10914,-1.0040,0.0094,0.0339,0.0965,-0.0356,-0.1150
10924,-1.0064,0.0060,0.0293,0.0660,0.0102,-0.1150
10934,-1.0094,0.0068,0.0360,-0.0104,0.0865,-0.0387
10944,-1.0113,0.0082,0.0215,-0.0256,0.0865,-0.0540
10954,-1.0089,0.0099,0.0264,-0.0562,-0.0051,0.0224
10964,-1.0074,0.0063,0.0276,-0.0104,0.0254,0.0987
10974,-1.0089,0.0116,0.0302,0.0354,-0.0509,0.0376
10984,-1.0055,0.0070,0.0256,-0.0562,-0.0204,0.0224
10994,-1.0086,0.0131,0.0254,0.0049,0.0560,0.0376
11004,-1.0113,0.0107,0.0232,0.0049,0.0865,0.0682
11014,-1.0030,0.0102,0.0247,0.0354,0.0712,0.0224
11024,-1.0104,0.0131,0.0310,-0.0256,0.0560,-0.0234
11034,-1.0192,0.0077,0.0218,-0.0256,-0.0356,-0.0387
11044,-1.0094,0.0055,0.0225,-0.0256,-0.1273,0.0224
11054,-1.0018,0.0046,0.0278,0.0354,-0.1273,-0.0234
11064,-1.0062,0.0075,0.0326,0.0965,-0.0815,0.0071
11074,-1.0104,0.0090,0.0271,0.0354,0.0102,-0.0387
11084,-1.0067,0.0114,0.0264,0.0354,0.0254,-0.0387
11094,-1.0123,0.0063,0.0312,-0.0562,-0.0509,-0.0692
11104,-1.0101,0.0097,0.0235,-0.1325,-0.0356,0.0224
11114,-1.0084,0.0058,0.0300,-0.0104,-0.0815,-0.0082
11124,-1.0094,0.0031,0.0363,0.0507,-0.0204,0.0071
11134,-1.0060,0.0080,0.0319,0.0812,0.0102,0.0224
11144,-1.0045,0.0112,0.0314,0.0354,0.0407,0.0071
11154,-1.0072,0.0087,0.0254,0.0354,0.0712,-0.0234
11164,-1.0064,0.0126,0.0251,-0.0256,0.0712,-0.0387
11174,-1.0160,0.0131,0.0215,-0.0562,0.0865,-0.0387
11184,-1.0163,0.0092,0.0256,-0.0256,0.0712,0.0071
11194,-1.0060,0.0082,0.0329,-0.0409,0.0407,-0.0387
11204,-1.0077,0.0087,0.0297,-0.0715,0.0254,-0.0387
11214,-1.0082,0.0038,0.0290,-0.0867,0.0254,-0.1456
11224,-1.0096,0.0092,0.0237,-0.0409,0.1628,-0.0845
11234,-1.0069,0.0080,0.0314,-0.0409,0.1934,-0.0998
11244,-1.0091,0.0070,0.0261,-0.0409,0.1323,-0.0234
11254,-1.0109,0.0092,0.0242,0.0354,0.0407,0.0529
11264,-1.0111,0.0082,0.0256,0.0507,-0.0815,0.0071
11274,-1.0082,0.0053,0.0278,0.0507,-0.0662,-0.0692
11284,-1.0101,0.0068,0.0268,0.0049,-0.0356,0.0529
11294,-1.0062,0.0112,0.0247,0.0202,0.1018,0.0376
11304,-1.0133,0.0087,0.0203,-0.0562,0.1781,-0.0234
11314,-1.0052,0.0094,0.0242,-0.0104,0.0865,0.0071
11324,-1.0094,0.0082,0.0271,-0.0104,-0.0967,0.0071
11334,-1.0057,0.0073,0.0341,0.0812,-0.1273,-0.0387
11344,-1.0067,0.0153,0.0290,0.0660,-0.1273,0.0224
11354,-1.0067,0.0138,0.0285,-0.0256,0.0407,-0.0845
11364,-1.0067,0.0126,0.0314,0.0049,0.1018,-0.0540
11374,-1.0096,0.0121,0.0293,-0.0409,0.1476,-0.0845
11384,-1.0077,0.0068,0.0295,-0.0562,0.0560,-0.0692
11394,-1.0106,0.0065,0.0295,-0.1325,0.0102,0.0224
11404,-1.0052,0.0053,0.0310,0.0202,-0.0356,0.0834
11414,-1.0091,0.0060,0.0244,0.0202,0.0254,-0.0234
11424,-1.0153,0.0038,0.0189,0.0660,0.0407,-0.0540
11434,-1.0069,0.0077,0.0235,0.0202,0.0712,-0.0387
11444,-1.0123,0.0092,0.0205,0.0507,0.0712,-0.0082
11454,-1.0040,0.0087,0.0215,0.0202,0.1018,0.0529
11464,-1.0084,0.0090,0.0225,-0.0562,-0.0051,0.0529
11474,-1.0089,0.0099,0.0266,0.0049,-0.1425,0.0376
11484,-1.0033,0.0073,0.0300,0.0354,-0.2341,0.0376
11494,-1.0060,0.0090,0.0310,0.0202,-0.0815,-0.0387
11504,-1.0099,0.0065,0.0285,0.0202,0.1018,0.0071
11514,-1.0123,0.0102,0.0317,0.0507,0.2086,-0.1150
11524,-1.0082,0.0136,0.0329,0.0202,0.0407,-0.0540
11534,-1.0023,0.0109,0.0319,-0.0562,-0.0662,0.0224
11544,-1.0074,0.0102,0.0351,-0.0562,-0.0662,-0.0387
11554,-1.0082,0.0060,0.0290,-0.0409,-0.0509,0.0071
11564,-1.0077,0.0060,0.0268,-0.0715,-0.0356,-0.0387
11574,-1.0069,0.0053,0.0329,0.0202,0.0560,-0.0234
11584,-1.0033,0.0102,0.0324,0.0812,0.1170,0.0376
11594,-1.0170,0.0082,0.0312,-0.0104,0.1170,0.0071
11604,-1.0138,0.0129,0.0247,-0.0104,0.0865,0.0376
11614,-1.0101,0.0046,0.0268,0.0202,-0.0509,0.1292
11624,-1.0074,0.0075,0.0235,0.0507,-0.1120,0.0682
11634,-1.0091,0.0058,0.0273,-0.0409,-0.1120,0.0071
11644,-1.0060,0.0073,0.0285,-0.0256,0.0407,0.0376
11654,-1.0089,0.0092,0.0266,-0.0409,0.0865,-0.0082
11664,-1.0089,0.0073,0.0329,0.0049,0.2392,-0.0082
11674,-1.0072,0.0107,0.0348,0.0049,0.1476,-0.0082
11684,-1.0091,0.0085,0.0331,0.0049,0.1476,-0.0692
11694,-1.0091,0.0063,0.0295,-0.0715,0.0102,-0.0082
11704,-1.0052,0.0063,0.0235,-0.0256,-0.1273,-0.0540
11714,-1.0013,0.0099,0.0324,-0.0715,-0.0967,-0.0692
11724,-1.0089,0.0048,0.0297,-0.0715,-0.0051,-0.0234
11734,-1.0069,0.0065,0.0254,-0.0409,0.0560,-0.0387
11744,-1.0096,0.0085,0.0314,0.0354,0.1628,-0.0082
11754,-1.0109,0.0087,0.0268,-0.0562,0.0407,0.0529
11764,-1.0062,0.0097,0.0230,0.0354,0.0254,0.0071
11774,-1.0055,0.0077,0.0300,-0.0409,-0.1120,0.0376
11784,-1.0079,0.0065,0.0331,-0.0104,-0.0967,0.0376
11794,-1.0035,0.0090,0.0247,0.0354,-0.0509,-0.0082
11804,-1.0109,0.0107,0.0288,0.0354,0.0712,0.0224
11814,-1.0106,0.0085,0.0280,0.0202,0.0712,-0.0082
11824,-1.0082,0.0077,0.0235,0.0812,-0.0662,0.0224
11834,-1.0086,0.0116,0.0210,0.0202,-0.0356,0.0376
11844,-0.9898,0.0112,0.0341,-0.0256,-0.0967,-0.0540
11854,-1.0128,0.0068,0.0222,-0.0104,0.0712,-0.0234
11864,-1.0047,0.0087,0.0251,-0.0409,0.0407,-0.1303
11874,-0.9939,0.0129,0.0343,0.0202,0.0407,0.0376
11884,-1.0123,0.0090,0.0273,-0.0409,0.1170,0.0071
11894,-1.0060,0.0119,0.0324,-0.0562,0.0560,0.0529
11904,-1.0096,0.0102,0.0300,-0.0256,0.1170,-0.0387
11914,-1.0123,0.0119,0.0285,0.0202,-0.0051,-0.0692
11924,-1.0064,0.0104,0.0266,0.0049,-0.0356,-0.1303
11934,-1.0033,0.0099,0.0290,-0.0409,0.0102,-0.0082
11944,-1.0020,0.0102,0.0283,-0.1325,0.2239,0.0224
11954,-1.0072,0.0094,0.0264,-0.1478,0.2392,0.0224
11964,-1.0106,0.0033,0.0305,-0.0256,0.2086,-0.0387
11974,-1.0099,0.0043,0.0273,0.0354,0.0712,-0.0234
11984,-1.0062,0.0036,0.0230,0.0354,-0.1273,-0.0387
11994,-1.0082,0.0009,0.0213,0.0660,-0.1273,-0.0082
12004,-1.0126,0.0048,0.0215,0.0202,-0.0662,0.0071
12014,-1.0084,0.0116,0.0237,0.0049,0.0560,0.0529
12024,-1.0101,0.0148,0.0259,0.0965,-0.0815,0.0682
12034,-1.0140,0.0129,0.0288,0.0354,-0.0967,0.0224
12044,-1.0106,0.0151,0.0310,-0.0409,-0.1578,0.0529
12054,-1.0045,0.0119,0.0300,0.0049,-0.1578,0.0682
12064,-1.0023,0.0080,0.0331,0.0812,-0.1273,-0.0692
12074,-1.0045,0.0151,0.0297,0.0049,0.0712,-0.0540
12084,-1.0121,0.0112,0.0329,-0.0409,0.0407,0.0376
12094,-1.0106,0.0058,0.0324,0.0202,-0.0509,0.0071
12104,-1.0060,0.0092,0.0339,0.0202,-0.1425,-0.0540
12114,-1.0072,0.0043,0.0271,0.0202,-0.0815,0.0224
12124,-1.0123,0.0073,0.0329,-0.0562,-0.0051,0.0071
12134,-1.0037,0.0046,0.0331,-0.0104,0.0254,0.0834
12144,-1.0047,0.0080,0.0256,0.0202,0.0560,0.0834
12154,-1.0096,0.0080,0.0196,0.0202,0.0865,0.0224
12164,-1.0158,0.0138,0.0295,0.0049,0.1323,-0.0082
12174,-1.0172,0.0129,0.0198,0.0660,0.1018,0.0071
12184,-1.0089,0.0112,0.0230,0.0049,0.0102,-0.0998
12194,-1.0069,0.0080,0.0232,-0.0867,-0.0051,-0.0234
12204,-1.0074,0.0112,0.0201,-0.0104,-0.0509,-0.0234
12214,-1.0045,0.0060,0.0278,0.0049,-0.0815,-0.0082
12224,-1.0089,0.0055,0.0283,0.0812,0.0102,-0.0845
12234,-1.0158,0.0092,0.0227,0.0507,0.1170,-0.0082
12244,-1.0317,0.0065,0.0278,0.0660,0.0560,-0.0387
12254,-1.0045,0.0038,0.0302,0.1118,-0.0662,-0.0692
12264,-1.0106,0.0055,0.0293,0.0049,-0.1273,0.1292
12274,-1.0077,0.0075,0.0341,0.0354,-0.0967,0.0071
12284,-1.0060,0.0119,0.0288,0.0354,0.0407,-0.0692
12294,-1.0131,0.0124,0.0326,-0.0409,0.0560,0.0071
12304,-1.0121,0.0087,0.0273,-0.0409,0.0254,0.0834
12314,-1.0111,0.0082,0.0297,-0.0562,0.0560,0.0071
12324,-1.0101,0.0102,0.0251,-0.1173,-0.0051,-0.0234
12334,-1.0062,0.0058,0.0264,-0.0409,0.1018,-0.0082
12344,-1.0158,0.0094,0.0242,0.0049,0.1323,0.0224
12354,-1.0226,0.0073,0.0326,0.0354,0.1476,0.0529
12364,-1.0084,0.0126,0.0300,0.0812,0.1781,-0.0234
12374,-1.0145,0.0099,0.0259,0.0507,0.0102,-0.0540
12384,-1.0062,0.0092,0.0222,0.0049,-0.0204,-0.0387
12394,-1.0057,0.0053,0.0314,0.0812,0.0560,0.0071
12404,-1.0077,0.0053,0.0259,0.1270,-0.0051,0.0529
12414,-1.0109,0.0114,0.0264,0.0202,-0.0051,0.0376
12424,-1.0104,0.0051,0.0242,0.0660,-0.1273,0.0834
12434,-1.0106,0.0068,0.0261,0.0660,-0.0204,-0.0540
12444,-1.0079,0.0073,0.0312,0.0354,-0.0509,-0.0082
12454,-1.0082,0.0129,0.0242,-0.0104,-0.0356,0.0224
12464,-1.0096,0.0075,0.0339,-0.0256,-0.0662,-0.0540
12474,-1.0113,0.0099,0.0266,-0.0409,0.0865,-0.0540
12484,-1.0091,0.0107,0.0280,-0.1020,0.0712,-0.0845
12494,-1.0116,0.0055,0.0276,0.0507,0.1170,-0.0540
12504,-1.0086,0.0097,0.0271,0.0812,-0.0204,-0.0540
12514,-1.0064,0.0104,0.0293,0.0812,-0.0356,-0.0082
12524,-1.0055,0.0124,0.0273,0.0354,-0.0204,-0.0692
12534,-1.0064,0.0097,0.0242,-0.0256,-0.0204,0.0529
12544,-1.0140,0.0141,0.0227,-0.0562,0.0560,-0.0845
12554,-1.0136,0.0087,0.0189,-0.0562,0.0102,-0.0540
12564,-1.0060,0.0060,0.0353,-0.1325,-0.2799,-0.0234
12574,-1.0047,0.0080,0.0295,0.0049,-0.1578,-0.0845
12584,-1.0060,0.0087,0.0268,0.0507,0.0102,-0.0387
12594,-1.0111,0.0090,0.0266,-0.0104,0.1323,-0.0998
12604,-1.0189,0.0107,0.0288,-0.0562,0.0560,-0.0082
12614,-1.0050,0.0124,0.0283,-0.1173,-0.0051,0.0071
12624,-1.0020,0.0075,0.0307,0.0049,0.0407,0.0224
12634,-1.0084,0.0092,0.0307,-0.0104,0.0712,0.0376
12644,-1.0086,0.0109,0.0239,-0.1020,0.1018,0.0834
12654,-1.0101,0.0065,0.0290,-0.0409,0.0865,0.0224
12664,-1.0079,0.0070,0.0300,-0.0562,-0.0356,0.0529
12674,-1.0074,0.0065,0.0201,-0.0256,-0.1120,0.0071
12684,-1.0052,0.0116,0.0259,0.0049,-0.0509,-0.0082
12694,-1.0084,0.0107,0.0293,-0.0256,-0.0815,-0.0387
12704,-1.0099,0.0131,0.0276,-0.0104,0.1170,0.0224
12714,-1.0118,0.0138,0.0232,-0.0715,-0.0051,0.0071
12724,-1.0052,0.0126,0.0326,-0.0104,-0.0051,0.0682
12734,-1.0050,0.0077,0.0314,-0.0562,0.0865,-0.0998
12744,-1.0067,0.0077,0.0259,-0.0409,0.1628,-0.0845
12754,-1.0167,0.0085,0.0280,-0.0409,0.1323,-0.1150
12764,-1.0091,0.0046,0.0259,0.0049,0.1323,-0.0845
12774,-1.0175,0.0065,0.0244,0.0354,0.0560,0.0071
12784,-1.0089,0.0024,0.0244,0.0354,0.0407,-0.0234
12794,-1.0089,0.0055,0.0251,0.0354,0.0865,0.0224
12804,-1.0111,0.0077,0.0247,0.0202,0.1170,0.0071
12814,-1.0077,0.0063,0.0242,-0.0715,-0.0204,-0.0692
12824,-1.0104,0.0085,0.0268,-0.0867,-0.0204,0.0071
12834,-1.0082,0.0090,0.0261,-0.0104,-0.0051,-0.0234
12844,-1.0079,0.0080,0.0264,0.0507,0.0560,0.0529
12854,-1.0079,0.0102,0.0280,0.0202,-0.0662,0.0834
12864,-1.0086,0.0109,0.0288,0.0812,-0.1273,0.0682
12874,-1.0116,0.0060,0.0213,0.0507,-0.2341,0.0529
12884,-1.0018,0.0104,0.0285,0.0660,-0.3715,0.1292
12894,-0.9974,0.0116,0.0280,0.0354,-0.2799,0.0529
12904,-1.0106,0.0094,0.0276,0.0202,-0.1883,0.0071
12914,-1.0037,0.0146,0.0295,0.0202,-0.1425,-0.0692
12924,-1.0101,0.0143,0.0307,-0.0104,-0.0356,-0.0845
12934,-1.0145,0.0116,0.0360,-0.1325,0.1018,-0.0998
12944,-1.0158,0.0138,0.0346,-0.1020,0.1628,-0.0998
12954,-1.0072,0.0080,0.0360,-0.1020,0.1170,-0.0692
12964,-1.0111,0.0058,0.0322,-0.1173,0.0865,-0.0845
12974,-1.0033,0.0087,0.0302,-0.0409,0.1628,-0.0387
12984,-1.0067,0.0065,0.0271,-0.0562,0.2697,-0.0540
12994,-1.0118,0.0058,0.0285,-0.0104,0.3308,0.0376
13004,-1.0072,0.0082,0.0249,-0.0409,0.2086,0.0682
13014,-1.0123,0.0065,0.0174,-0.0715,0.1323,0.0224
13024,-1.0077,0.0021,0.0215,0.0049,0.0407,0.0529
13034,-1.0067,0.0085,0.0239,0.1118,0.1781,-0.0387
13044,-1.0113,0.0131,0.0193,0.1118,0.1323,-0.0082
13054,-1.0094,0.0085,0.0302,0.0354,0.1170,0.0224
13064,-1.0086,0.0107,0.0341,0.0049,-0.0967,-0.0082
13074,-1.0109,0.0141,0.0302,0.0354,-0.1883,0.0376
13084,-1.0045,0.0143,0.0343,0.0202,-0.2036,0.0224
13094,-1.0042,0.0131,0.0324,0.0202,-0.0815,-0.0540
13104,-1.0040,0.0085,0.0312,0.0507,0.0102,0.0071
13114,-1.0062,0.0092,0.0310,0.0049,0.1170,-0.0234
13124,-1.0096,0.0080,0.0355,-0.0104,0.0407,-0.0387
13134,-1.0067,0.0048,0.0319,0.0507,0.0560,-0.0540
13144,-1.0033,0.0065,0.0314,-0.0715,0.1170,0.0071
13154,-1.0143,0.0107,0.0249,-0.0409,0.1781,0.0682
13164,-1.0091,0.0065,0.0254,-0.0715,0.1170,0.0224
13174,-1.0101,0.0075,0.0324,-0.1020,0.1018,0.0529
13184,-1.0091,0.0060,0.0324,-0.0715,0.1476,0.0071
13194,-1.0106,0.0065,0.0239,-0.0409,0.1323,-0.0692
13204,-1.0008,0.0119,0.0278,-0.0562,0.0254,-0.0234
13214,-1.0094,0.0158,0.0280,-0.0104,0.0407,0.0376
13224,-1.0064,0.0107,0.0225,-0.0715,0.0712,0.0071
13234,-1.0106,0.0119,0.0230,0.0202,-0.0662,-0.0082
13244,-1.0062,0.0109,0.0225,0.0354,0.0102,0.0682
13254,-1.0091,0.0087,0.0293,-0.0104,0.0102,-0.0692
13264,-1.0086,0.0092,0.0268,0.0354,0.0102,-0.0998
13274,-1.0113,0.0143,0.0317,-0.0256,-0.0356,-0.0387
13284,-1.0121,0.0090,0.0312,-0.0562,-0.1273,0.0529
13294,-1.0074,0.0073,0.0329,0.0202,-0.0815,0.0224
13304,-1.0035,0.0080,0.0290,0.0507,-0.0662,0.0071
13314,-1.0096,0.0053,0.0329,0.0507,-0.0662,-0.0082
13324,-1.0060,0.0058,0.0353,-0.0562,-0.0815,-0.0234
13334,-1.0069,0.0065,0.0280,-0.0562,-0.1273,0.0071
13344,-1.0028,0.0070,0.0276,-0.0867,-0.0051,-0.0692
13354,-1.0089,0.0099,0.0254,-0.0409,0.0712,0.0071
13364,-1.0082,0.0116,0.0239,-0.0409,0.1323,-0.0845
13374,-1.0123,0.0070,0.0254,0.0202,0.0560,0.0071
13384,-1.0072,0.0077,0.0297,-0.0409,-0.0204,-0.0234
13394,-1.0079,0.0102,0.0278,-0.0256,-0.0356,-0.0082
13404,-1.0109,0.0104,0.0297,0.0507,-0.0051,-0.0845
13414,-1.0047,0.0087,0.0239,-0.0104,-0.0356,-0.0234
13424,-1.0047,0.0053,0.0230,-0.0104,-0.0051,0.0071
13434,-1.0067,0.0102,0.0247,-0.0409,-0.0509,0.0071
13444,-1.0143,0.0060,0.0276,-0.0104,-0.0662,0.0834
13454,-1.0079,0.0065,0.0326,-0.0104,-0.1120,-0.0234
13464,-1.0109,0.0041,0.0326,-0.0104,-0.0967,-0.0387
13474,-1.0047,0.0063,0.0264,0.0354,-0.0662,-0.0234
13484,-1.0084,0.0099,0.0285,0.0507,-0.0509,-0.0540
13494,-1.0079,0.0092,0.0273,0.0202,-0.1731,0.0224
13504,-1.0028,0.0065,0.0302,-0.0104,-0.1578,0.0376
13514,-1.0113,0.0102,0.0346,-0.0867,-0.0662,0.0987
13524,-1.0077,0.0082,0.0297,-0.0409,0.0102,0.0834
13534,-1.0030,0.0090,0.0343,-0.0256,0.0560,-0.0082
13544,-1.0067,0.0126,0.0280,0.0812,0.1170,-0.0387
13554,-1.0094,0.0060,0.0242,0.0507,0.0254,0.0682
13564,-1.0126,0.0112,0.0319,0.0507,0.1018,0.0987
13574,-1.0101,0.0102,0.0293,0.0354,0.0102,0.0682
13584,-1.0060,0.0094,0.0295,-0.0104,0.0102,-0.0998
13594,-1.0096,0.0104,0.0222,0.0049,0.0712,-0.0234
13604,-1.0121,0.0065,0.0222,-0.0104,0.0560,-0.0082
13614,-1.0084,0.0082,0.0242,-0.0562,0.0560,-0.0387
13624,-1.0084,0.0082,0.0273,0.0049,0.0102,-0.0540
13634,-1.0079,0.0107,0.0256,0.0507,-0.0356,-0.0234
13644,-1.0055,0.0092,0.0232,0.0202,0.0102,0.0376
13654,-1.0067,0.0112,0.0251,0.0507,-0.0356,-0.0692
13664,-1.0084,0.0114,0.0300,0.0354,-0.0815,-0.0540
13674,-1.0060,0.0097,0.0322,-0.0256,0.0102,-0.0082
13684,-1.0091,0.0097,0.0314,-0.0256,0.0865,-0.0234
13694,-1.0062,0.0099,0.0247,-0.1020,0.1323,-0.0387
13704,-1.0030,0.0099,0.0358,0.0202,0.0560,-0.0540
13714,-1.0047,0.0094,0.0271,-0.0256,0.0407,-0.0082
13724,-1.0069,0.0099,0.0295,0.0202,0.0102,0.0224
13734,-1.0089,0.0077,0.0334,0.0660,-0.0051,0.0529
13744,-1.0096,0.0090,0.0324,-0.0104,0.0560,0.0529
13754,-1.0094,0.0090,0.0305,0.0049,0.1018,-0.0082
13764,-1.0126,0.0077,0.0288,-0.0104,0.1018,-0.0540
13774,-1.0104,0.0080,0.0268,-0.0409,0.0254,-0.0387
13784,-1.0074,0.0085,0.0222,0.0049,-0.0051,-0.0234
13794,-1.0074,0.0102,0.0239,-0.0256,0.0560,-0.0387
13804,-1.0123,0.0121,0.0305,-0.0409,0.0254,0.0071
13814,-1.0084,0.0097,0.0276,0.0202,0.0560,0.0071
13824,-1.0126,0.0092,0.0235,0.0354,0.0254,0.0376
13834,-1.0106,0.0099,0.0343,-0.0715,-0.0509,-0.0387
13844,-1.0037,0.0097,0.0290,-0.0409,-0.0356,-0.0845
13854,-1.0042,0.0021,0.0247,-0.0562,-0.0051,-0.0387
13864,-1.0136,0.0063,0.0297,-0.0867,-0.0356,0.0376
13874,-1.0104,0.0060,0.0239,-0.0715,0.0102,-0.0387
13884,-1.0094,0.0060,0.0317,-0.0256,0.0254,-0.0845
13894,-1.0094,0.0090,0.0307,0.0354,0.0560,0.0071
13904,-1.0069,0.0102,0.0324,0.0354,0.0865,-0.0387
13914,-1.0096,0.0116,0.0365,-0.0256,0.0407,0.0224
13924,-1.0079,0.0107,0.0300,-0.0715,0.0560,-0.0234
13934,-1.0069,0.0104,0.0276,-0.0867,0.1476,0.0071
13944,-1.0079,0.0099,0.0220,-0.0867,0.2086,-0.0234
13954,-1.0082,0.0090,0.0307,-0.0715,0.1323,0.0071
13964,-1.0099,0.0080,0.0222,0.0202,0.1628,-0.0845
13974,-1.0037,0.0094,0.0317,0.0354,-0.0356,-0.0234
13984,-1.0118,0.0116,0.0259,0.0049,0.0102,-0.0387
13994,-1.0185,0.0109,0.0193,0.0049,0.1170,0.0987
14004,-1.0111,0.0112,0.0302,-0.0256,0.0865,0.0224
14014,-1.0099,0.0082,0.0186,-0.0867,0.0560,0.0682
14024,-1.0079,0.0082,0.0256,-0.0104,-0.0356,0.0071
14034,-1.0072,0.0104,0.0297,-0.0256,-0.0662,-0.0234
14044,-1.0060,0.0068,0.0249,-0.0104,0.0102,0.0682
14054,-1.0086,0.0085,0.0247,0.0049,0.1323,-0.0082
14064,-1.0055,0.0112,0.0339,0.0660,0.0407,0.0071
14074,-1.0106,0.0102,0.0276,-0.0409,0.1170,0.0529
14084,-1.0040,0.0153,0.0341,0.0049,0.0712,0.0376
14094,-1.0055,0.0109,0.0312,-0.0104,0.0560,0.0071
14104,-1.0072,0.0090,0.0288,0.0202,0.0865,0.0376
14114,-1.0064,0.0068,0.0312,-0.0104,0.0254,0.0071
14124,-1.0131,0.0063,0.0249,-0.0867,0.0865,0.0224
14134,-1.0099,0.0068,0.0307,-0.1020,0.0865,-0.0082
14144,-1.0099,0.0075,0.0314,0.0354,0.1323,0.0224
14154,-1.0123,0.0148,0.0314,0.0507,0.1018,0.0376
14164,-1.0094,0.0126,0.0276,0.0049,0.1323,0.0071
14174,-1.0045,0.0102,0.0210,-0.0409,0.0254,0.0834
14184,-1.0118,0.0099,0.0283,0.0049,0.0102,-0.0082
14194,-1.0094,0.0073,0.0319,-0.0409,-0.0509,-0.0234
14204,-1.0084,0.0055,0.0285,0.0049,-0.0509,-0.0387
14214,-1.0084,0.0077,0.0319,-0.0104,0.0102,0.0376
14224,-1.0077,0.0073,0.0280,0.0354,-0.0204,-0.0387
14234,-1.0143,0.0036,0.0317,0.0354,-0.0204,0.0224
14244,-1.0096,0.0102,0.0264,0.0354,0.0102,0.0224
14254,-1.0060,0.0112,0.0305,-0.0104,-0.0967,0.0529
14264,-1.0104,0.0085,0.0317,-0.0409,0.0560,0.0376
14274,-1.0113,0.0092,0.0339,0.0202,0.1170,-0.0387
14284,-1.0131,0.0080,0.0307,-0.0409,0.0407,0.0529
14294,-1.0079,0.0068,0.0242,-0.0256,-0.0204,-0.0082
14304,-1.0082,0.0085,0.0290,-0.0104,-0.0356,-0.0692
14314,-1.0086,0.0077,0.0266,0.0660,0.0102,-0.0540
14324,-1.0101,0.0112,0.0317,0.1423,0.0560,-0.1303
14334,-1.0091,0.0107,0.0268,0.0202,0.0254,-0.0692
14344,-1.0094,0.0114,0.0251,0.0049,0.1018,-0.1303
14354,-1.0111,0.0068,0.0254,-0.0409,0.0560,-0.0540
14364,-1.0106,0.0065,0.0326,-0.0562,-0.0051,-0.0387
14374,-1.0084,0.0063,0.0288,-0.0104,0.0712,-0.0845
14384,-1.0116,0.0131,0.0310,-0.0409,0.0102,-0.0692
14394,-1.0001,0.0121,0.0360,0.0202,0.0102,-0.0692
14404,-1.0055,0.0070,0.0278,-0.0256,0.0102,0.0071
14414,-1.0096,0.0073,0.0331,-0.0104,-0.0051,0.0071
14424,-1.0069,0.0082,0.0266,0.0049,0.0102,-0.0998
14434,-1.0042,0.0087,0.0254,-0.0256,0.0560,-0.0540
14444,-1.0072,0.0107,0.0276,-0.0562,0.1934,0.0071
14454,-1.0138,0.0065,0.0261,-0.1020,0.1323,0.0987
14464,-1.0109,0.0092,0.0288,-0.1325,0.0560,-0.0387
14474,-1.0091,0.0070,0.0317,-0.0867,0.0865,-0.0845
14484,-1.0086,0.0104,0.0254,-0.0715,0.0712,-0.0082
14494,-1.0104,0.0090,0.0247,0.0507,0.1170,0.0682
14504,-1.0106,0.0131,0.0300,0.0812,0.0407,0.0224
14514,-1.0123,0.0121,0.0227,0.1270,-0.0356,0.0071
14524,-1.0067,0.0114,0.0346,0.0354,-0.0204,-0.0234
14534,-1.0079,0.0114,0.0310,0.0202,-0.0662,0.0071
14544,-1.0079,0.0116,0.0314,-0.0104,-0.0204,-0.0387
14554,-1.0094,0.0143,0.0322,0.0354,0.0254,-0.0998
14564,-1.0060,0.0094,0.0310,-0.0409,-0.0051,-0.0234
14574,-1.0118,0.0097,0.0307,-0.0256,0.1170,-0.0387
14584,-1.0052,0.0092,0.0293,0.0202,0.0560,-0.0234
14594,-1.0089,0.0087,0.0290,0.0202,0.0407,-0.0540
14604,-1.0055,0.0082,0.0312,0.0660,0.0712,-0.0082
14614,-1.0079,0.0104,0.0261,-0.0104,0.1018,-0.1150
14624,-1.0109,0.0097,0.0256,-0.0409,0.1476,-0.0234
14634,-1.0106,0.0102,0.0222,-0.0867,0.0560,-0.0540
14644,-1.0101,0.0073,0.0317,-0.1478,0.0865,0.0071
14654,-1.0035,0.0092,0.0247,-0.0256,0.0254,0.0529
14664,-1.0079,0.0087,0.0256,0.0354,0.1018,-0.0234
14674,-1.0086,0.0082,0.0247,0.0354,0.0865,-0.0082
14684,-1.0104,0.0112,0.0259,-0.0104,0.0254,-0.0387
14694,-1.0072,0.0116,0.0280,0.0049,0.0865,-0.0540
14704,-1.0057,0.0112,0.0297,0.0049,0.0102,-0.0387
14714,-1.0106,0.0124,0.0222,0.0202,-0.0509,-0.0234
14724,-1.0060,0.0124,0.0302,0.0049,0.0254,-0.0082
14734,-1.0104,0.0080,0.0271,-0.0256,0.0407,-0.0387
14744,-1.0062,0.0099,0.0324,0.0202,-0.0509,-0.0234
14754,-1.0086,0.0097,0.0302,-0.0256,0.0254,0.0224
14764,-1.0064,0.0090,0.0288,-0.0256,-0.0204,-0.0387
14774,-1.0057,0.0041,0.0280,0.0354,0.0254,-0.0082
14784,-1.0091,0.0075,0.0261,0.0965,0.0560,0.0834
14794,-1.0099,0.0129,0.0220,0.0812,0.0865,0.0071
14804,-1.0104,0.0116,0.0247,0.0965,-0.0051,0.0224
14814,-1.0086,0.0099,0.0285,0.0507,-0.0356,-0.0082
14824,-1.0040,0.0077,0.0198,0.0660,0.0102,0.0376
14834,-1.0091,0.0092,0.0254,0.0354,-0.0509,0.0529
14844,-1.0084,0.0099,0.0283,0.0812,-0.0815,0.0376
14854,-1.0084,0.0085,0.0307,0.0812,-0.0662,-0.0387
14864,-1.0091,0.0114,0.0276,0.0049,-0.0356,-0.0082
14874,-1.0089,0.0134,0.0271,0.0354,0.0407,0.0224
14884,-1.0113,0.0102,0.0280,-0.0867,0.0865,0.0071
14894,-1.0123,0.0112,0.0268,-0.0867,0.0102,-0.0692
14904,-1.0057,0.0073,0.0324,-0.0562,-0.0051,-0.0234
14914,-1.0074,0.0051,0.0310,-0.0256,-0.0815,0.0071
14924,-1.0084,0.0097,0.0297,0.0202,-0.0051,-0.0692
14934,-1.0050,0.0080,0.0251,-0.0104,0.0407,-0.0387
14944,-1.0067,0.0102,0.0264,-0.0104,0.1170,0.0376
14954,-1.0096,0.0112,0.0297,0.0354,0.0560,0.0071
14964,-1.0101,0.0112,0.0254,0.0812,0.0712,0.0529
14974,-1.0113,0.0102,0.0251,0.0812,0.0712,0.0224
14984,-1.0089,0.0121,0.0203,-0.0104,0.0407,-0.0387
14994,-1.0084,0.0092,0.0271,-0.1020,0.0712,0.0224
15004,-1.0096,0.0051,0.0249,-0.0715,0.0407,0.0224
15014,-1.0072,0.0080,0.0331,0.0049,0.0865,0.0224
15024,-1.0099,0.0153,0.0283,0.0507,0.0712,0.0071
15034,-1.0116,0.0129,0.0213,0.0202,0.0254,0.0529
15044,-1.0064,0.0163,0.0322,0.0660,-0.0509,-0.0234
15054,-1.0001,0.0090,0.0326,0.0660,-0.0509,-0.0845
15064,-1.0086,0.0065,0.0317,0.0507,0.1018,-0.0234
15074,-1.0072,0.0055,0.0280,0.0202,0.0712,-0.0998
15084,-1.0067,0.0104,0.0249,0.0049,0.0407,-0.0540
15094,-1.0086,0.0058,0.0300,0.0507,-0.0204,-0.0998
15104,-1.0084,0.0046,0.0261,-0.0256,0.0407,0.0224
15114,-1.0072,0.0055,0.0273,0.0507,0.0102,0.0224
15124,-1.0101,0.0097,0.0266,0.0812,0.0560,0.1292
15134,-1.0131,0.0116,0.0341,0.0202,0.0560,0.0834
15144,-1.0082,0.0155,0.0355,0.0049,0.0407,0.0071
15154,-1.0086,0.0097,0.0264,-0.0562,0.0712,-0.0387
15164,-1.0104,0.0119,0.0218,-0.0562,0.0712,0.0224
15174,-1.0118,0.0085,0.0305,-0.1325,0.0865,-0.1456
15184,-1.0064,0.0075,0.0302,0.0202,-0.0356,-0.0540
15194,-1.0067,0.0085,0.0247,-0.0104,-0.0356,-0.0387
15204,-1.0131,0.0085,0.0331,0.0049,0.0560,0.0224
15214,-1.0128,0.0038,0.0232,0.0965,0.0102,-0.0234
15224,-1.0082,0.0124,0.0295,0.0965,-0.1120,-0.0387
15234,-1.0060,0.0085,0.0300,0.0049,-0.0662,-0.1303
15244,-1.0086,0.0082,0.0288,-0.0562,-0.0051,-0.0692
15254,-1.0096,0.0031,0.0256,0.0049,-0.0051,0.0224
15264,-1.0121,0.0033,0.0273,0.0202,0.0254,-0.0082
15274,-1.0082,0.0060,0.0319,0.0507,-0.0356,0.1140
15284,-1.0042,0.0063,0.0293,0.0202,0.0407,0.0682
15294,-1.0042,0.0092,0.0266,0.0507,-0.0051,0.0682
15304,-1.0106,0.0151,0.0247,-0.0256,0.0407,0.0834
15314,-1.0082,0.0129,0.0232,-0.0562,0.0407,0.0529
15324,-1.0091,0.0092,0.0264,0.0049,0.0102,0.0987
15334,-1.0082,0.0138,0.0235,-0.0409,-0.0815,0.0529
15344,-1.0077,0.0073,0.0266,-0.0715,-0.0662,-0.0082
15354,-1.0084,0.0094,0.0247,-0.0867,-0.0509,-0.0234
15364,-1.0094,0.0080,0.0230,-0.0409,-0.0815,-0.0540
15374,-1.0072,0.0077,0.0326,0.0812,-0.0051,-0.0234
15384,-1.0106,0.0090,0.0326,0.0507,0.0254,-0.0845
15394,-1.0086,0.0087,0.0295,0.0507,0.0102,-0.1150
15404,-1.0101,0.0058,0.0351,0.0202,0.0102,-0.0387
15414,-1.0077,0.0048,0.0310,0.0202,-0.0356,-0.0845
15424,-1.0084,0.0053,0.0278,-0.0867,0.0254,-0.0234
15434,-1.0072,0.0092,0.0358,-0.0562,0.0865,-0.0234
15444,-1.0060,0.0134,0.0326,0.0812,-0.0509,0.0376
15454,-1.0091,0.0129,0.0334,0.0202,-0.0356,-0.0387
15464,-1.0116,0.0104,0.0266,0.0507,0.0102,0.0224
15474,-1.0089,0.0109,0.0264,0.0202,-0.0051,0.0376
15484,-1.0086,0.0102,0.0317,-0.0104,-0.0509,-0.0082
15494,-1.0077,0.0085,0.0295,0.0660,-0.0662,-0.0387
15504,-1.0086,0.0087,0.0336,0.0812,-0.0051,-0.0234
15514,-1.0123,0.0099,0.0317,0.0202,0.0865,-0.0540
15524,-1.0074,0.0097,0.0225,-0.0104,0.1018,-0.0082
15534,-1.0089,0.0060,0.0300,-0.0104,0.0712,-0.0234
15544,-1.0099,0.0075,0.0329,-0.0104,0.1018,-0.0845
15554,-1.0084,0.0104,0.0278,-0.0256,0.0712,-0.0692
15564,-1.0086,0.0080,0.0290,-0.0562,0.0560,-0.0692
15574,-1.0035,0.0099,0.0259,-0.0562,-0.0051,-0.0692
15584,-1.0101,0.0041,0.0249,-0.0867,0.0560,0.0224
15594,-1.0101,0.0077,0.0288,-0.0256,0.0865,0.0224
15604,-1.0040,0.0077,0.0249,-0.0256,0.0102,0.0376
15614,-1.0133,0.0116,0.0261,0.0202,0.0102,0.0224
15624,-1.0111,0.0087,0.0312,-0.0104,0.0102,-0.0082
15634,-1.0094,0.0060,0.0300,0.0049,0.0102,-0.1150
15644,-1.0052,0.0109,0.0295,0.0660,-0.0509,-0.0845
15654,-1.0077,0.0065,0.0319,-0.0104,0.0102,-0.0387
15664,-1.0091,0.0099,0.0247,0.0202,0.0407,0.0224
15674,-1.0050,0.0107,0.0307,0.0660,0.1018,0.0682
15684,-1.0113,0.0102,0.0314,0.0202,0.1170,0.0071
15694,-1.0131,0.0116,0.0334,0.0507,0.0254,0.0529
15704,-1.0082,0.0168,0.0268,0.0660,-0.0662,0.0224
15714,-1.0045,0.0060,0.0288,0.0049,-0.0662,-0.1608
15724,-1.0069,0.0107,0.0271,0.0049,0.0865,-0.0998
15734,-1.0111,0.0055,0.0297,-0.0256,0.1323,-0.0692
15744,-1.0167,0.0065,0.0271,0.0049,0.0712,0.0376
15754,-1.0118,0.0031,0.0254,-0.0104,0.1323,-0.1303
15764,-1.0020,0.0065,0.0346,0.0049,0.1170,-0.1150
15774,-1.0094,0.0085,0.0254,0.0202,0.0865,-0.0692
15784,-1.0077,0.0055,0.0293,0.0202,-0.0204,-0.0387
15794,-1.0089,0.0094,0.0283,-0.0409,-0.0815,0.0224
15804,-1.0060,0.0058,0.0230,0.1270,-0.0356,-0.0387
15814,-1.0128,0.0085,0.0293,-0.0104,0.0102,-0.0540
15824,-1.0096,0.0102,0.0247,0.0354,0.0712,-0.0234
15834,-1.0150,0.0126,0.0334,-0.0715,-0.1273,0.0376
15844,-1.0064,0.0080,0.0300,0.0049,-0.1273,0.0071
15854,-1.0047,0.0082,0.0314,-0.0104,-0.0204,0.0376
15864,-1.0072,0.0092,0.0261,0.0202,0.1170,-0.0387
15874,-1.0160,0.0119,0.0319,-0.0104,0.0865,-0.0387
15884,-1.0089,0.0094,0.0290,0.0354,0.0254,-0.0998
15894,-1.0077,0.0114,0.0278,0.0049,0.0560,-0.0082
15904,-1.0118,0.0094,0.0324,0.0202,0.1323,-0.1150
15914,-1.0121,0.0063,0.0237,-0.0104,0.1170,-0.0540
15924,-1.0165,0.0021,0.0232,-0.0104,0.0407,-0.0998
15934,-1.0072,0.0041,0.0232,0.0049,-0.0356,-0.0692
15944,-1.0082,0.0026,0.0326,-0.0104,-0.0204,-0.0540
15954,-1.0077,0.0092,0.0271,0.0354,0.0102,-0.0082
15964,-1.0106,0.0082,0.0261,-0.0409,0.0407,-0.0692
15974,-1.0074,0.0136,0.0271,-0.0409,0.0865,-0.0234
15984,-1.0099,0.0143,0.0244,-0.0104,-0.0509,0.0224
15994,-1.0069,0.0148,0.0314,0.0354,-0.0662,-0.0540
16004,-1.0067,0.0160,0.0336,-0.0104,0.0407,-0.0845
16014,-1.0084,0.0094,0.0266,-0.0104,0.0407,-0.0082
16024,-1.0082,0.0094,0.0271,-0.0867,0.0865,-0.1150
16034,-1.0084,0.0094,0.0256,0.0049,-0.0204,-0.0387
16044,-1.0079,0.0119,0.0280,0.0202,-0.0356,-0.0692
16054,-1.0050,0.0099,0.0343,0.0202,0.0407,-0.0845
16064,-1.0045,0.0094,0.0305,-0.0256,0.1323,0.0071
16074,-1.0084,0.0073,0.0242,-0.0867,0.1628,-0.0692
16084,-1.0050,0.0087,0.0259,-0.0256,0.1018,-0.0540
16094,-1.0109,0.0029,0.0370,-0.0104,-0.0204,-0.0692
16104,-1.0060,0.0063,0.0355,-0.0409,0.0560,-0.0234
16114,-1.0104,0.0058,0.0232,0.0202,0.1170,-0.0540
16124,-1.0023,0.0092,0.0280,-0.0104,0.0865,-0.0845
16134,-1.0079,0.0068,0.0273,0.0507,0.0865,-0.0082
16144,-1.0091,0.0124,0.0215,0.0812,0.0865,-0.0387
16154,-1.0082,0.0085,0.0285,0.0354,0.0712,0.0529
16164,-1.0104,0.0119,0.0302,0.0660,0.1170,0.0224
16174,-1.0091,0.0109,0.0312,-0.0256,0.0865,0.0376
16184,-1.0116,0.0104,0.0314,0.0049,0.0102,-0.0540
16194,-1.0077,0.0075,0.0351,-0.0104,-0.0356,-0.0845
16204,-1.0057,0.0104,0.0247,0.0202,-0.1120,-0.1150
16214,-1.0057,0.0063,0.0285,0.0202,-0.0204,-0.1303
16224,-1.0113,0.0053,0.0326,0.0507,0.0407,-0.0234
16234,-1.0143,0.0090,0.0295,0.0202,0.0712,-0.0234
16244,-1.0145,0.0058,0.0276,0.0049,0.0254,0.0071
16254,-0.9991,0.0087,0.0326,0.0507,-0.0204,-0.0234
16264,-1.0057,0.0085,0.0312,0.0507,0.0254,-0.0845
16274,-1.0091,0.0121,0.0276,-0.0256,0.0407,-0.0540
16284,-1.0121,0.0121,0.0293,-0.0104,0.0712,0.0376
16294,-1.0094,0.0119,0.0218,-0.0104,0.0254,0.0224
16304,-1.0096,0.0092,0.0280,-0.0104,0.0712,-0.0387
16314,-1.0077,0.0094,0.0239,-0.0104,0.0712,-0.0692
16324,-1.0077,0.0082,0.0283,-0.0104,0.0560,-0.0234
16334,-1.0101,0.0116,0.0254,0.0354,0.0254,0.0071
16344,-1.0109,0.0112,0.0222,0.0965,-0.0356,0.0071
16354,-1.0074,0.0097,0.0285,0.0660,-0.0815,-0.0234
16364,-1.0084,0.0063,0.0256,0.1118,-0.1120,0.0376
16374,-1.0094,0.0060,0.0343,0.0049,-0.2036,-0.0387
16384,-1.0052,0.0087,0.0271,-0.0562,-0.1731,-0.0692
16394,-1.0052,0.0073,0.0360,0.0202,-0.0509,-0.0082
16404,-1.0094,0.0073,0.0314,0.0507,-0.0356,0.0529
16414,-1.0123,0.0094,0.0329,0.0660,-0.0662,0.0224
16424,-0.9974,0.0090,0.0346,0.0049,0.0102,-0.0082
16434,-1.0121,0.0097,0.0297,0.0660,-0.0356,0.0682
16444,-1.0074,0.0092,0.0288,0.0354,0.0254,0.1140
16454,-1.0091,0.0080,0.0312,-0.0409,-0.0204,0.0224
16464,-1.0099,0.0085,0.0208,-0.0409,0.1018,-0.0540
16474,-1.0133,0.0109,0.0295,-0.0562,0.0865,0.0834
16484,-1.0123,0.0068,0.0261,-0.0104,0.0865,0.0529
16494,-1.0077,0.0131,0.0264,-0.0104,0.0102,0.0682
16504,-1.0082,0.0107,0.0261,0.0049,-0.0815,0.0224
16514,-1.0064,0.0129,0.0295,-0.0256,-0.0204,0.0529
16524,-1.0094,0.0055,0.0288,0.0049,-0.0509,-0.0082
16534,-1.0096,0.0102,0.0293,0.0354,-0.0356,-0.0998
16544,-1.0077,0.0046,0.0285,-0.0867,-0.0509,-0.0540
16554,-0.9991,0.0094,0.0230,-0.0562,-0.0662,-0.1150
16564,-1.0062,0.0048,0.0305,-0.0104,0.0560,0.0071
16574,-1.0096,0.0102,0.0336,-0.0409,0.0254,-0.0998
16584,-1.0074,0.0065,0.0305,0.0354,-0.0051,-0.0692
16594,-1.0084,0.0099,0.0290,0.0660,-0.0356,-0.0540
16604,-1.0084,0.0058,0.0302,0.0049,-0.0051,-0.0082
16614,-1.0104,0.0097,0.0302,-0.0715,0.0865,-0.0082
16624,-1.0084,0.0116,0.0319,-0.0104,0.0712,-0.0082
16634,-1.0113,0.0107,0.0268,0.0049,0.0407,-0.0234
16644,-1.0055,0.0070,0.0235,0.0202,0.0560,-0.0234
16654,-1.0079,0.0099,0.0254,0.0202,0.0560,0.0224
16664,-1.0116,0.0092,0.0283,-0.0562,0.0865,0.0071
16674,-1.0133,0.0092,0.0184,-0.0104,0.1323,0.0529
16684,-1.0148,0.0112,0.0254,0.0354,-0.0356,0.0071
16694,-1.0116,0.0063,0.0251,0.0202,-0.0509,-0.0692
16704,-1.0106,0.0051,0.0227,0.0202,-0.0967,0.0376
16714,-1.0091,0.0033,0.0278,0.0049,-0.0051,0.0224
16724,-1.0077,0.0094,0.0264,0.0660,-0.0662,0.0376
16734,-1.0091,0.0087,0.0312,0.0354,-0.0662,0.0071
16744,-1.0060,0.0085,0.0273,0.0660,-0.0662,-0.0234
16754,-1.0067,0.0077,0.0305,-0.0409,-0.0204,-0.0082
16764,-1.0052,0.0104,0.0266,-0.0256,-0.0204,-0.0540
16774,-1.0099,0.0099,0.0307,0.0049,-0.0204,-0.0082
16784,-1.0060,0.0107,0.0295,-0.0562,-0.1273,0.0376
16794,-1.0047,0.0092,0.0319,-0.0867,-0.0204,0.0376
16804,-1.0060,0.0085,0.0259,-0.0715,0.0254,0.0224
16814,-1.0113,0.0073,0.0210,-0.1173,0.0865,-0.0234
16824,-1.0096,0.0102,0.0213,-0.0104,0.0102,-0.0234
16834,-1.0136,0.0112,0.0312,0.0049,0.1323,-0.0387
16844,-1.0109,0.0038,0.0264,-0.0562,0.1323,0.0071
16854,-1.0138,0.0097,0.0179,-0.0104,-0.0204,-0.0082
16864,-1.0079,0.0075,0.0225,-0.0256,-0.0051,-0.0387
16874,-1.0118,0.0092,0.0254,-0.0256,-0.0356,-0.0234
16884,-1.0104,0.0097,0.0256,0.0354,-0.0204,-0.0082
16894,-1.0123,0.0107,0.0239,-0.0104,0.1170,-0.0234
16904,-1.0113,0.0090,0.0288,0.0049,0.0254,-0.0692
16914,-1.0035,0.0082,0.0242,0.0660,-0.0051,-0.0234
16924,-1.0109,0.0124,0.0273,0.0965,0.0254,0.0071
16934,-1.0111,0.0068,0.0310,0.0812,0.0102,-0.0234
16944,-1.0094,0.0092,0.0266,0.0354,-0.0204,-0.0998
16954,-1.0074,0.0134,0.0319,0.0202,-0.0051,-0.0692
16964,-1.0104,0.0138,0.0276,-0.1173,0.0254,-0.0387
16974,-1.0072,0.0112,0.0324,-0.0256,0.0560,-0.0540
16984,-1.0099,0.0070,0.0285,-0.0867,0.1170,0.0224
16994,-1.0133,0.0046,0.0259,-0.0256,0.1018,-0.0234
17004,-1.0104,0.0068,0.0285,-0.1020,-0.0051,-0.0540
17014,-1.0040,0.0085,0.0251,-0.0104,-0.0051,-0.0234
17024,-1.0060,0.0065,0.0293,0.0202,0.0865,-0.0082
17034,-1.0091,0.0097,0.0271,-0.0104,0.1170,0.0376
17044,-1.0116,0.0090,0.0271,-0.0104,0.0102,0.0071
17054,-1.0109,0.0121,0.0302,-0.0562,-0.0356,0.0071
17064,-1.0072,0.0109,0.0302,-0.0562,0.0254,-0.0082
17074,-1.0028,0.0094,0.0249,0.0354,0.0407,-0.0540
17084,-1.0082,0.0114,0.0283,-0.0562,-0.0204,-0.0540
17094,-1.0096,0.0058,0.0317,0.0507,-0.0356,-0.0234
17104,-1.0084,0.0112,0.0232,0.0202,-0.0051,0.0071
17114,-1.0099,0.0065,0.0264,-0.0104,0.0102,-0.0845
17124,-1.0086,0.0075,0.0322,0.0202,0.0102,-0.0692
17134,-1.0055,0.0112,0.0278,-0.0104,0.0560,-0.0234
17144,-1.0015,0.0090,0.0222,-0.0715,0.0560,0.0224
17154,-1.0111,0.0075,0.0310,-0.0256,0.0102,0.0224
17164,-1.0138,0.0090,0.0302,-0.0715,0.0254,0.0376
17174,-1.0111,0.0112,0.0227,-0.0256,0.0102,-0.0082
17184,-1.0136,0.0104,0.0280,-0.0256,0.0407,0.0376
17194,-1.0064,0.0097,0.0264,0.0202,-0.0509,-0.0234
17204,-1.0052,0.0107,0.0266,-0.0104,-0.0356,0.0071
17214,-1.0045,0.0090,0.0278,-0.0409,0.0712,0.0071
17224,-1.0101,0.0104,0.0334,-0.0409,-0.0204,-0.0082
17234,-1.0084,0.0085,0.0326,-0.0409,-0.1273,-0.0692
17244,-1.0069,0.0094,0.0346,-0.0715,-0.0051,-0.0234
17254,-1.0074,0.0099,0.0222,-0.0562,0.0254,-0.0234
17264,-1.0170,0.0073,0.0242,-0.0867,-0.0509,-0.0387
17274,-1.0082,0.0058,0.0273,-0.0256,0.0102,-0.0540
17284,-1.0126,0.0077,0.0251,0.0507,-0.0509,0.0529
17294,-1.0074,0.0051,0.0276,0.0507,0.0407,0.0682
17304,-1.0030,0.0087,0.0271,0.0354,-0.0815,0.0224
17314,-1.0062,0.0065,0.0268,0.0202,-0.0204,0.0071
17324,-1.0123,0.0073,0.0293,-0.0409,0.0102,-0.0082
17334,-1.0101,0.0058,0.0297,-0.0104,0.0865,0.0376
17344,-1.0158,0.0119,0.0235,0.0202,-0.0509,0.0071
17354,-1.0121,0.0082,0.0293,-0.0409,-0.1883,-0.0387
17364,-1.0033,0.0160,0.0288,-0.0104,-0.1425,-0.0692
17374,-1.0079,0.0087,0.0256,-0.0562,0.0254,-0.0387
17384,-1.0126,0.0094,0.0319,0.0354,0.0407,-0.0234
17394,-1.0091,0.0077,0.0293,0.0049,-0.0204,-0.0234
17404,-1.0067,0.0109,0.0283,-0.0409,-0.0815,-0.0692
17414,-1.0091,0.0046,0.0276,-0.0104,-0.0204,-0.0387
17424,-1.0055,0.0075,0.0353,-0.0409,-0.0204,0.0071
17434,-1.0082,0.0043,0.0280,-0.0256,0.1323,0.0224
17444,-1.0079,0.0060,0.0256,-0.0562,0.0712,-0.0082
17454,-1.0086,0.0024,0.0278,0.0202,-0.0509,0.0376
17464,-1.0055,0.0077,0.0295,0.0812,-0.0815,-0.0540
17474,-1.0052,0.0109,0.0346,0.0354,-0.0051,-0.0387
17484,-1.0074,0.0077,0.0293,0.0660,0.0102,-0.0082
17494,-1.0109,0.0104,0.0310,0.0354,-0.0356,0.0529
17504,-1.0084,0.0121,0.0365,-0.0562,-0.0509,-0.0082
17514,-1.0055,0.0073,0.0310,-0.0867,-0.0051,-0.0692
17524,-1.0055,0.0065,0.0264,-0.1325,-0.0051,-0.0082
17534,-1.0057,0.0092,0.0283,-0.0409,-0.0204,0.0376
17544,-1.0113,0.0104,0.0336,-0.0104,0.0712,0.0529
17554,-1.0086,0.0058,0.0310,-0.0104,0.0254,0.0682
17564,-1.0096,0.0124,0.0314,-0.0104,0.1476,0.0071
17574,-1.0074,0.0112,0.0300,-0.0409,0.1628,0.0071
17584,-1.0077,0.0134,0.0264,0.0354,0.0865,-0.0540
17594,-1.0082,0.0073,0.0295,-0.0256,0.0712,-0.0234
17604,-1.0101,0.0051,0.0208,-0.0562,-0.0356,0.1445
17614,-1.0077,0.0080,0.0251,-0.0715,-0.0204,0.0682
17624,-1.0079,0.0036,0.0220,-0.0409,0.0102,0.1140
17634,-1.0131,0.0070,0.0254,0.0354,-0.0356,-0.0234
17644,-1.0128,0.0131,0.0186,0.0812,0.0254,0.0224
17654,-1.0106,0.0146,0.0268,0.0965,0.0254,0.0224
17664,-1.0094,0.0138,0.0305,0.0049,0.0560,-0.0234
17674,-1.0101,0.0119,0.0271,-0.0867,0.0407,0.0529
17684,-1.0101,0.0090,0.0293,-0.1173,0.0254,0.0529
17694,-1.0109,0.0068,0.0314,0.0049,-0.0204,0.0529
17704,-1.0008,0.0038,0.0290,0.0202,-0.0967,0.0224
17714,-1.0060,0.0046,0.0247,-0.0104,0.1018,-0.0234
17724,-1.0116,0.0080,0.0268,-0.0104,0.1018,0.0224
17734,-1.0101,0.0058,0.0249,0.0354,0.0254,0.0224
17744,-1.0084,0.0068,0.0271,-0.0104,-0.0662,-0.0540
17754,-1.0082,0.0082,0.0276,0.0202,-0.0967,0.0071
17764,-1.0104,0.0063,0.0302,0.0354,-0.0356,0.1598
17774,-1.0040,0.0097,0.0239,-0.0256,0.0712,0.0376
17784,-1.0109,0.0121,0.0310,-0.0104,0.0254,-0.0387
17794,-1.0094,0.0104,0.0324,0.0354,0.0407,-0.0387
17804,-1.0057,0.0134,0.0351,0.0660,0.1018,-0.0387
17814,-1.0126,0.0121,0.0300,-0.0715,0.1018,-0.0845
17824,-1.0106,0.0119,0.0242,-0.1020,-0.0051,-0.0387
17834,-1.0077,0.0109,0.0351,-0.0562,-0.0051,-0.0540
17844,-1.0037,0.0055,0.0276,0.0202,-0.0051,-0.0540
17854,-1.0055,0.0060,0.0288,0.0507,0.0712,-0.0082
17864,-1.0086,0.0058,0.0319,0.0812,0.1628,0.0071
17874,-1.0116,0.0073,0.0264,0.0660,0.0865,0.0834
17884,-1.0096,0.0087,0.0290,-0.0104,0.0560,0.0071
17894,-1.0077,0.0097,0.0319,-0.0715,0.0865,-0.0387
17904,-1.0096,0.0077,0.0232,-0.0867,0.0254,0.0224
17914,-1.0079,0.0090,0.0242,0.0507,-0.0204,0.0376
17924,-1.0067,0.0109,0.0242,-0.0409,0.1323,0.0529
17934,-1.0082,0.0092,0.0310,-0.0256,0.0865,0.0224
17944,-1.0084,0.0116,0.0259,-0.0715,-0.0204,0.0682
17954,-1.0096,0.0136,0.0273,0.0354,0.0254,-0.0234
17964,-1.0145,0.0107,0.0222,0.0202,0.0254,0.0071
17974,-1.0126,0.0138,0.0365,0.0354,0.0865,-0.0387
17984,-1.0064,0.0075,0.0261,-0.0104,-0.0051,-0.0387
17994,-1.0104,0.0119,0.0273,0.0049,-0.0967,-0.0387
18004,-1.0060,0.0080,0.0290,-0.0104,-0.0815,-0.0998
18014,-1.0079,0.0060,0.0336,0.0049,-0.0509,-0.0845
18024,-1.0099,0.0043,0.0271,0.0202,-0.0204,-0.0692
18034,-1.0121,0.0070,0.0290,-0.0256,-0.0967,0.0224
18044,-1.0003,0.0046,0.0319,0.0354,-0.1273,-0.0540
18054,-1.0096,0.0087,0.0336,0.0812,-0.0356,-0.0387
18064,-1.0055,0.0131,0.0312,-0.0104,0.1170,0.0529
18074,-1.0099,0.0168,0.0317,-0.0562,0.1170,0.0224
18084,-1.0131,0.0119,0.0310,-0.0104,0.1323,0.0071
18094,-1.0094,0.0109,0.0290,0.0202,0.0712,0.0071
18104,-1.0077,0.0121,0.0329,-0.0256,-0.0051,0.1140
18114,-1.0042,0.0092,0.0227,0.0660,-0.0356,0.0224
18124,-1.0079,0.0121,0.0271,0.0354,0.1018,-0.0387
18134,-1.0079,0.0129,0.0283,-0.0256,0.1934,-0.0540
18144,-1.0138,0.0126,0.0295,-0.0409,0.2086,-0.0234
18154,-1.0104,0.0097,0.0256,0.0507,0.0712,-0.0540
18164,-1.0106,0.0055,0.0295,0.0049,-0.1120,-0.0387
18174,-1.0064,0.0068,0.0278,-0.0409,-0.1120,0.0224
18184,-1.0077,0.0031,0.0232,0.0354,-0.0204,-0.0387
18194,-1.0052,0.0007,0.0254,0.0507,0.0865,0.0071
18204,-1.0126,0.0029,0.0295,0.0812,0.0712,0.1292
18214,-1.0099,0.0082,0.0319,0.0354,0.0712,0.1140
18224,-1.0069,0.0104,0.0365,0.0354,0.0560,0.1598
18234,-1.0104,0.0124,0.0317,0.0660,0.0254,0.0987
18244,-1.0067,0.0170,0.0319,0.0354,0.0407,0.0987
18254,-1.0101,0.0175,0.0283,0.0660,0.0865,0.1140
18264,-1.0074,0.0160,0.0307,0.0354,0.1170,0.0529
18274,-1.0109,0.0143,0.0273,0.0202,0.1170,-0.0234
18284,-1.0096,0.0107,0.0290,0.0202,0.1018,-0.0234
18294,-1.0086,0.0131,0.0264,-0.0562,0.1934,-0.0082
18304,-1.0118,0.0097,0.0193,0.0049,0.1323,-0.0540
18314,-1.0150,0.0080,0.0230,-0.0256,0.0865,-0.0998
18324,-1.0128,0.0060,0.0266,0.0202,0.0254,-0.0998
18334,-1.0106,0.0070,0.0280,0.0202,-0.0662,-0.0998
18344,-1.0050,0.0070,0.0271,0.0354,-0.0051,-0.0845
18354,-1.0094,0.0063,0.0288,0.0049,-0.0204,-0.0082
18364,-1.0131,0.0060,0.0336,-0.0104,-0.0815,0.0071
18374,-1.0096,0.0070,0.0334,0.0049,-0.0356,0.0834
18384,-1.0057,0.0073,0.0307,0.0049,-0.0204,0.0987
18394,-1.0077,0.0090,0.0273,-0.0867,-0.0051,0.0682
18404,-1.0126,0.0134,0.0264,-0.0256,0.0407,0.0376
18414,-1.0094,0.0148,0.0239,0.0202,0.0407,0.0529
18424,-1.0099,0.0148,0.0290,0.0202,-0.0051,0.0071
18434,-1.0067,0.0114,0.0227,0.0049,-0.0967,0.0682
18444,-1.0062,0.0109,0.0365,-0.0104,-0.0356,-0.0998
18454,-1.0106,0.0060,0.0203,0.0202,-0.0051,-0.0082
18464,-1.0109,0.0094,0.0317,0.0202,-0.0204,0.0224
18474,-1.0082,0.0102,0.0300,0.0660,-0.1120,-0.0234
18484,-1.0099,0.0097,0.0247,0.0965,-0.0509,-0.0998
18494,-1.0082,0.0116,0.0329,-0.0256,0.0712,-0.1150
18504,-1.0113,0.0082,0.0331,-0.0562,-0.0204,-0.0845
18514,-1.0121,0.0063,0.0273,-0.0715,-0.0662,-0.0540
18524,-1.0084,0.0065,0.0266,0.0049,-0.1731,-0.0234
18534,-1.0082,0.0038,0.0285,0.0202,-0.1425,0.0224
18544,-1.0077,0.0060,0.0290,-0.0256,-0.0967,-0.0234
18554,-1.0094,0.0058,0.0278,0.0049,-0.0662,0.0529
18564,-1.0106,0.0134,0.0329,0.0660,-0.0356,-0.0082
18574,-1.0091,0.0097,0.0288,0.0354,-0.0662,0.0071
18584,-1.0015,0.0121,0.0235,0.0202,-0.0967,0.0529
18594,-1.0123,0.0121,0.0232,-0.0409,-0.1578,0.0376
18604,-1.0062,0.0087,0.0280,-0.0104,-0.1731,0.0224
18614,-1.0042,0.0070,0.0348,0.0354,-0.1731,-0.0692
18624,-1.0123,0.0053,0.0317,0.0354,-0.1120,0.0071
18634,-1.0104,0.0090,0.0288,0.0660,-0.0662,-0.0692
18644,-1.0106,0.0043,0.0280,-0.0104,-0.0204,-0.0540
18654,-1.0057,0.0077,0.0295,0.0049,-0.0051,-0.0692
18664,-1.0091,0.0102,0.0302,-0.0256,0.0712,-0.0692
18674,-1.0033,0.0087,0.0310,-0.0409,0.0407,-0.0082
18684,-1.0050,0.0092,0.0290,-0.0867,0.0712,0.0224
18694,-1.0035,0.0063,0.0312,-0.1020,0.1018,0.0529
18704,-1.0133,0.0080,0.0295,-0.1325,0.2239,-0.0082
18714,-1.0145,0.0053,0.0268,-0.0562,0.1781,-0.0387
18724,-1.0155,0.0109,0.0244,-0.0867,0.1018,-0.0387
18734,-1.0025,0.0121,0.0239,-0.0256,0.0712,-0.0387
18744,-1.0074,0.0075,0.0264,0.0354,0.0102,0.0224
18754,-1.0121,0.0090,0.0184,-0.0104,0.0560,0.0224
18764,-1.0118,0.0063,0.0208,-0.0715,0.0865,-0.0234
18774,-1.0131,0.0031,0.0208,-0.0256,0.0102,-0.0387
18784,-1.0099,0.0053,0.0222,0.0202,-0.1273,-0.0082
18794,-1.0047,0.0070,0.0285,0.0965,-0.0815,0.1292
18804,-1.0106,0.0107,0.0280,0.0507,-0.0356,0.0376
18814,-1.0091,0.0077,0.0251,0.0965,-0.0204,0.0529
18824,-1.0086,0.0114,0.0319,0.0354,-0.0356,0.0071
18834,-1.0109,0.0136,0.0339,-0.0562,0.0102,-0.0234
18844,-1.0074,0.0099,0.0326,-0.0562,0.0560,0.0529
18854,-1.0033,0.0126,0.0377,-0.1631,0.0712,0.0376
18864,-1.0187,0.0119,0.0326,-0.0562,0.1781,-0.0692
18874,-1.0153,0.0024,0.0259,-0.0409,0.1476,-0.0540
18884,-1.0084,0.0055,0.0297,0.0354,0.0560,-0.0845
18894,-1.0126,0.0029,0.0179,-0.0104,-0.0509,-0.0845
18904,-1.0015,0.0033,0.0319,-0.0104,-0.0204,-0.0540
18914,-1.0037,0.0051,0.0264,-0.0409,0.1170,0.0224
18924,-1.0111,0.0080,0.0208,-0.0562,0.2392,0.0834
18934,-1.0133,0.0092,0.0239,0.0202,0.2086,0.0682
18944,-1.0111,0.0102,0.0278,0.0660,0.0712,0.0529
18954,-1.0047,0.0092,0.0305,-0.0715,0.0254,0.0071
18964,-1.0133,0.0129,0.0256,0.0354,0.2392,0.0529
18974,-1.0101,0.0112,0.0365,0.0049,0.1628,0.0682
18984,-1.0077,0.0121,0.0293,0.1118,0.0712,0.0224
18994,-1.0126,0.0099,0.0319,0.0049,-0.0051,0.0071
19004,-1.0055,0.0097,0.0276,0.0049,-0.0815,-0.0082
19014,-1.0089,0.0102,0.0244,0.0812,-0.0051,-0.0387
19024,-1.0133,0.0073,0.0283,-0.0104,0.0254,-0.0234
19034,-1.0072,0.0048,0.0227,-0.0104,-0.0815,0.0529
19044,-1.0045,0.0075,0.0271,0.0354,-0.0051,-0.0540
19054,-1.0033,0.0065,0.0278,0.0049,0.0560,0.0071
19064,-1.0128,0.0073,0.0220,0.0202,0.1018,0.0071
19074,-1.0109,0.0090,0.0256,-0.0715,0.0254,0.0987
19084,-1.0106,0.0107,0.0203,-0.0409,-0.0204,0.0529
19094,-1.0106,0.0070,0.0295,-0.0256,-0.0967,0.0376
19104,-1.0062,0.0082,0.0273,0.0354,-0.0662,0.0224
19114,-1.0094,0.0099,0.0273,-0.0104,-0.0662,0.0224
19124,-1.0123,0.0087,0.0244,0.0354,-0.0967,-0.0387
19134,-1.0064,0.0134,0.0254,0.1270,-0.1578,0.0224
19144,-1.0052,0.0134,0.0389,0.1423,-0.2494,0.0071
19154,-1.0111,0.0119,0.0288,0.1270,-0.2952,-0.0845
19164,-1.0101,0.0126,0.0251,0.0354,-0.2647,0.0224
19174,-1.0116,0.0124,0.0322,-0.0409,-0.2036,-0.0692
19184,-1.0062,0.0114,0.0293,-0.0104,-0.0356,-0.1608
19194,-1.0069,0.0070,0.0312,0.0354,0.0102,-0.1456
19204,-1.0094,0.0046,0.0326,-0.1020,0.1018,-0.1456
19214,-1.0062,0.0058,0.0307,-0.0409,0.0712,-0.0998
19224,-1.0062,0.0033,0.0268,-0.0867,0.1476,-0.0540
19234,-1.0045,0.0016,0.0358,-0.0104,0.1018,-0.0234
19244,-1.0055,0.0073,0.0322,-0.0409,0.1934,0.0224
19254,-1.0128,0.0041,0.0297,-0.0562,0.1781,0.0682
19264,-1.0113,0.0048,0.0259,-0.0409,0.1934,0.0834
19274,-1.0118,0.0087,0.0203,0.0049,0.1323,0.1445
19284,-1.0089,0.0080,0.0213,-0.0104,0.0865,0.0834
19294,-1.0126,0.0080,0.0198,0.0202,0.1170,0.1292
19304,-1.0121,0.0114,0.0280,0.0354,0.0865,0.0071
19314,-1.0121,0.0134,0.0280,-0.0256,0.0560,0.0376
19324,-1.0060,0.0143,0.0215,0.0202,0.0407,0.0071
19334,-1.0062,0.0114,0.0256,-0.0104,0.0102,-0.0845
19344,-1.0091,0.0094,0.0322,-0.0562,-0.0967,-0.1150
19354,-1.0045,0.0085,0.0363,0.0202,-0.0967,-0.0998
19364,-1.0079,0.0051,0.0297,-0.0104,-0.0662,-0.0540
19374,-1.0055,0.0060,0.0319,-0.0715,-0.0967,-0.0234
19384,-1.0062,0.0004,0.0339,-0.0562,0.0254,-0.0234
19394,-1.0074,0.0080,0.0326,-0.0409,-0.0051,0.0376
19404,-1.0079,0.0092,0.0329,-0.0104,0.0254,0.0224
19414,-1.0033,0.0080,0.0283,-0.0409,-0.0051,0.0376
19424,-1.0165,0.0065,0.0280,-0.0104,-0.0051,0.0376
19434,-1.0204,0.0102,0.0215,0.0202,0.0407,0.0682
19444,-1.0040,0.0080,0.0302,-0.0104,0.1018,-0.0082
19454,-1.0079,0.0092,0.0285,-0.0409,0.1170,0.0376
19464,-1.0104,0.0136,0.0324,-0.0562,-0.0051,0.0224
19474,-1.0084,0.0107,0.0317,0.0049,-0.0662,0.0071
19484,-1.0074,0.0104,0.0244,-0.0715,-0.0509,0.0071
19494,-1.0111,0.0134,0.0317,-0.0409,-0.0356,0.0224
19504,-1.0123,0.0092,0.0300,-0.0562,0.0407,0.0071
19514,-1.0062,0.0063,0.0295,-0.0409,-0.0662,0.0071
19524,-1.0042,0.0116,0.0343,-0.0409,0.0407,0.0376
19534,-1.0096,0.0112,0.0307,-0.0409,0.0254,-0.0082
19544,-1.0079,0.0087,0.0273,-0.0867,0.1628,-0.0540
19554,-1.0099,0.0124,0.0244,0.0507,0.0102,-0.0387
19564,-1.0128,0.0092,0.0326,-0.0256,-0.1120,-0.0387
19574,-1.0057,0.0075,0.0268,-0.0409,-0.0356,-0.0234
19584,-1.0042,0.0090,0.0232,-0.0715,0.0407,-0.0234
19594,-1.0077,0.0107,0.0302,-0.0409,0.1323,-0.0692
19604,-1.0086,0.0043,0.0278,0.0049,0.1476,-0.0692
19614,-1.0094,0.0029,0.0271,0.0354,0.0865,0.0376
19624,-1.0040,0.0068,0.0271,-0.0104,0.0407,0.1445
19634,-1.0101,0.0070,0.0312,0.0660,0.0865,0.1140
19644,-1.0079,0.0124,0.0307,0.0812,0.0102,0.0376
19654,-1.0113,0.0148,0.0259,0.0965,-0.0356,0.0224
19664,-1.0131,0.0182,0.0312,0.0354,0.0407,0.0224
19674,-1.0123,0.0104,0.0329,-0.0256,-0.0815,0.0071
19684,-1.0052,0.0151,0.0326,-0.0562,-0.1425,-0.0540
19694,-1.0072,0.0099,0.0247,-0.0562,-0.0204,-0.1761
19704,-1.0133,0.0063,0.0268,-0.0867,-0.0204,-0.0692
19714,-1.0064,0.0046,0.0300,-0.0867,-0.0509,-0.0234
19724,-1.0062,-0.0001,0.0278,-0.0409,-0.0509,-0.0540
19734,-1.0040,0.0026,0.0268,-0.0104,-0.0662,-0.0387
19744,-1.0094,0.0107,0.0273,-0.0256,-0.0356,-0.0845
19754,-1.0118,0.0099,0.0312,0.0660,-0.0356,-0.0387
19764,-1.0131,0.0177,0.0317,0.0812,-0.0204,0.0834
19774,-1.0118,0.0116,0.0285,0.0507,-0.0204,0.0529
19784,-1.0077,0.0075,0.0310,0.0202,-0.0356,-0.0082
19794,-1.0086,0.0075,0.0326,-0.0867,-0.0051,0.1140
19804,-1.0064,0.0063,0.0326,-0.0562,0.1170,0.0224
19814,-1.0123,0.0043,0.0280,-0.1020,0.0712,-0.0082
19824,-1.0116,0.0065,0.0314,-0.0562,0.0560,0.0376
19834,-1.0074,0.0068,0.0249,0.0507,0.0712,0.0071
19844,-1.0121,0.0119,0.0264,0.0354,0.1018,0.0987
19854,-1.0126,0.0136,0.0251,0.0049,-0.0051,0.0529
19864,-1.0099,0.0170,0.0280,-0.0256,0.0102,-0.0540
19874,-1.0113,0.0138,0.0305,0.0202,-0.0509,-0.0692
19884,-1.0042,0.0097,0.0249,-0.0867,-0.0204,-0.0692
19894,-1.0091,0.0094,0.0288,-0.0867,0.0254,-0.0082
19904,-1.0067,0.0031,0.0283,-0.1020,0.0407,-0.0998
19914,-1.0069,0.0029,0.0276,-0.1020,-0.0509,-0.0845
19924,-1.0091,0.0075,0.0312,0.0202,-0.0204,-0.0234
19934,-1.0074,0.0048,0.0351,0.0812,-0.0356,0.0224
19944,-1.0128,0.0002,0.0273,0.0812,-0.0051,0.0987
19954,-0.9814,0.0114,0.0348,-0.0104,-0.0967,0.1598
19964,-1.0047,0.0121,0.0297,-0.0715,-0.0356,0.1750
19974,-1.0045,0.0051,0.0285,-0.0562,-0.0815,0.1292
19984,-1.0037,0.0090,0.0237,-0.0104,0.1018,0.1750
19994,-1.0089,0.0102,0.0251,-0.0256,0.1018,0.1750
20004,-1.0079,0.0116,0.0261,-0.0409,0.1018,0.0987
20014,-1.0106,0.0104,0.0261,-0.0256,0.0560,0.0224
20024,-1.0020,0.0134,0.0256,-0.0256,0.0407,0.0376
20034,-1.0074,0.0151,0.0259,0.0660,0.1170,0.0071
20044,-1.0140,0.0148,0.0261,0.0049,0.0102,0.0224
20054,-1.0079,0.0068,0.0326,-0.0562,-0.0051,-0.0082
20064,-1.0099,0.0094,0.0268,-0.0562,-0.1273,-0.0845
20074,-1.0072,0.0033,0.0235,-0.0867,-0.1120,-0.0387
20084,-1.0062,0.0029,0.0276,-0.1020,-0.1120,-0.0845
20094,-1.0089,0.0063,0.0237,-0.0409,-0.0356,-0.0082
20104,-1.0177,0.0107,0.0271,0.0660,-0.0662,0.0682
20114,-1.0111,0.0124,0.0249,0.0354,-0.1120,0.0376
20124,-1.0113,0.0104,0.0271,0.0660,-0.0967,-0.0387
20134,-1.0050,0.0104,0.0307,-0.0715,-0.0662,0.0071
20144,-1.0074,0.0104,0.0314,0.0202,-0.0509,0.0682
20154,-1.0074,0.0143,0.0295,0.0354,0.0865,0.0834
20164,-1.0109,0.0114,0.0244,-0.0256,0.1323,-0.0387
20174,-1.0140,0.0087,0.0295,0.0202,0.0102,-0.0692
20184,-1.0067,0.0075,0.0261,0.0812,0.0102,-0.0234
20194,-1.0084,0.0107,0.0249,0.0812,-0.0356,-0.0845
20204,-1.0091,0.0068,0.0288,0.0965,-0.2189,-0.0540
20214,-1.0040,0.0073,0.0290,0.0202,-0.2036,-0.0692
20224,-1.0060,0.0053,0.0244,0.0202,-0.1578,0.0682
20234,-1.0167,0.0041,0.0259,0.0202,-0.0815,0.0987
20244,-1.0101,0.0099,0.0261,0.0202,-0.1425,0.0834
20254,-1.0069,0.0080,0.0290,0.0354,-0.1731,0.0682
20264,-1.0057,0.0085,0.0268,0.0354,0.0102,0.0682
20274,-1.0113,0.0070,0.0280,0.0049,0.1170,0.0376
20284,-1.0131,0.0107,0.0261,-0.0104,0.0560,0.0682
20294,-1.0096,0.0129,0.0363,0.0507,-0.0204,0.0071
20304,-1.0086,0.0124,0.0288,-0.0256,-0.1120,0.0682
20314,-1.0060,0.0148,0.0319,-0.0715,-0.0662,0.0987
20324,-1.0047,0.0107,0.0297,-0.0409,-0.0051,-0.0387
20334,-1.0101,0.0068,0.0305,-0.0104,0.0254,-0.1150
20344,-1.0072,0.0087,0.0302,-0.0562,0.1018,-0.0540
20354,-1.0138,0.0068,0.0302,0.0049,0.1781,-0.0845
20364,-1.0136,0.0102,0.0264,-0.0256,0.1323,-0.1761
20374,-1.0091,0.0058,0.0273,0.0507,-0.0356,-0.0998
20384,-1.0113,0.0058,0.0244,0.0202,-0.1120,-0.1608
20394,-1.0055,0.0082,0.0305,-0.0104,-0.0967,-0.0540
20404,-1.0074,0.0080,0.0273,-0.0562,-0.0815,-0.0234
20414,-1.0111,0.0026,0.0331,-0.0256,-0.0509,0.0682
20424,-1.0099,-0.0008,0.0288,0.0049,-0.0662,0.0376
20434,-1.0074,0.0043,0.0251,0.0049,-0.0356,0.0682
20444,-1.0025,0.0068,0.0288,-0.0409,0.0560,0.0224
20454,-1.0091,0.0065,0.0317,0.0507,0.0407,0.0987
20464,-1.0082,0.0087,0.0264,0.0354,0.0712,0.0834
20474,-1.0177,0.0153,0.0285,0.0507,0.0102,0.0071
20484,-1.0086,0.0151,0.0307,0.0049,-0.1578,-0.0540
20494,-1.0052,0.0151,0.0331,-0.0867,-0.1425,-0.0845
20504,-1.0064,0.0138,0.0266,-0.0256,-0.0967,-0.0692
20514,-1.0077,0.0068,0.0297,0.0202,-0.1273,0.0376
20524,-1.0079,0.0102,0.0283,0.0354,-0.0509,0.0071
20534,-1.0067,0.0060,0.0329,0.0049,-0.0509,-0.0540
20544,-1.0042,0.0026,0.0295,0.0202,0.1170,-0.0540
20554,-1.0091,0.0060,0.0326,-0.0256,0.2850,-0.1150
20564,-1.0101,0.0051,0.0244,-0.1020,0.2850,-0.1761
20574,-1.0104,0.0053,0.0271,-0.0562,0.1476,-0.1150
20584,-1.0101,0.0043,0.0319,-0.0867,0.0712,0.0071
20594,-1.0013,0.0075,0.0273,-0.0104,0.0560,-0.0234
20604,-1.0106,0.0077,0.0227,-0.0409,0.1170,0.0071
20614,-1.0109,0.0126,0.0261,-0.0104,0.2086,-0.0082
20624,-1.0086,0.0104,0.0302,-0.0256,0.2392,-0.0234
20634,-1.0150,0.0077,0.0278,-0.0256,0.1018,0.0529
20644,-1.0106,0.0092,0.0256,0.0049,-0.0356,0.0834
20654,-1.0037,0.0073,0.0239,-0.0256,0.0254,-0.0540
20664,-1.0118,0.0082,0.0295,-0.0562,0.0865,-0.0082
20674,-1.0096,0.0048,0.0251,-0.0104,0.0712,0.0376
20684,-1.0077,0.0077,0.0235,-0.0256,-0.0509,0.0071
20694,-1.0096,0.0090,0.0244,0.0507,-0.1578,0.0987
20704,-1.0037,0.0073,0.0251,0.0507,-0.1578,0.0682
20714,-1.0084,0.0107,0.0259,0.0812,-0.1120,0.0682
20724,-1.0106,0.0114,0.0317,0.0354,-0.1120,0.0224
20734,-1.0045,0.0116,0.0254,0.0049,-0.1273,0.0834
20744,-1.0094,0.0092,0.0244,0.0354,-0.0662,0.0376
20754,-1.0060,0.0058,0.0310,-0.0715,-0.0509,0.0376
20764,-1.0074,0.0048,0.0259,-0.0409,0.0865,0.0834
20774,-1.0136,0.0073,0.0307,0.0049,0.1781,0.0529
20784,-1.0069,0.0070,0.0271,-0.0409,0.0560,-0.0082
20794,-1.0094,0.0092,0.0310,0.0660,-0.0204,-0.0845
20804,-1.0035,0.0109,0.0365,0.0507,0.0102,-0.0234
20814,-1.0089,0.0173,0.0256,-0.0104,0.0102,-0.0845
20824,-1.0126,0.0177,0.0254,0.0812,0.0254,-0.0845
20834,-1.0067,0.0143,0.0280,-0.0409,-0.0051,-0.1761
20844,-1.0079,0.0080,0.0302,0.0049,0.0407,-0.1761
20854,-1.0089,0.0060,0.0276,-0.0104,0.1018,-0.1914
20864,-1.0084,0.0046,0.0319,-0.0409,0.1018,-0.2066
20874,-1.0104,0.0043,0.0235,0.0202,-0.0051,-0.1150
20884,-1.0045,-0.0003,0.0208,0.0354,-0.0051,-0.0692
20894,-1.0099,0.0036,0.0314,-0.0104,0.0254,-0.0234
20904,-1.0158,0.0046,0.0261,-0.0256,-0.0204,0.0682
20914,-1.0101,0.0063,0.0244,0.0965,-0.0356,0.0529
20924,-1.0042,0.0063,0.0307,0.0812,-0.0204,0.0224
20934,-1.0082,0.0119,0.0278,0.0660,0.0407,0.0682
20944,-1.0091,0.0136,0.0314,0.0812,-0.0051,0.0682
20954,-1.0106,0.0153,0.0273,0.0202,-0.0051,-0.0234
20964,-1.0126,0.0134,0.0334,-0.0104,0.0407,0.0376
20974,-1.0040,0.0143,0.0365,-0.0104,-0.0662,-0.0082
20984,-1.0057,0.0102,0.0297,-0.0104,-0.0509,-0.0082
20994,-1.0064,0.0134,0.0280,-0.0256,0.0254,-0.0082
21004,-1.0064,0.0077,0.0293,0.0202,0.1170,-0.0998
21014,-1.0069,0.0087,0.0305,0.0049,0.0712,-0.0845
21024,-1.0116,0.0014,0.0290,-0.0409,0.1018,-0.1303
21034,-1.0091,0.0058,0.0273,-0.0104,0.0865,-0.0387
21044,-1.0079,0.0073,0.0322,0.0354,0.1018,-0.0540
21054,-1.0082,0.0070,0.0310,-0.0562,0.0865,-0.0845
21064,-1.0035,0.0055,0.0317,-0.0562,0.1323,0.0376
21074,-1.0084,0.0075,0.0261,-0.0256,0.1781,-0.0540
21084,-1.0121,0.0114,0.0268,0.0202,0.0712,0.0682
21094,-1.0094,0.0082,0.0235,0.0202,0.0712,0.1445
21104,-1.0126,0.0048,0.0242,0.0049,-0.0662,0.0529
21114,-1.0104,0.0090,0.0293,-0.0104,-0.0204,0.0224
21124,-1.0094,0.0070,0.0264,-0.0104,0.0102,-0.0082
21134,-1.0077,0.0055,0.0276,-0.0562,-0.0051,0.0376
21144,-1.0091,0.0073,0.0220,0.0507,-0.0815,0.0071
21154,-1.0106,0.0112,0.0271,0.0507,-0.0967,-0.0082
21164,-1.0118,0.0119,0.0307,0.1728,-0.1273,0.0834
21174,-1.0082,0.0085,0.0326,0.1423,-0.1578,0.0224
21184,-0.9993,0.0121,0.0249,0.0965,-0.1120,0.0682
21194,-1.0055,0.0129,0.0273,0.0049,-0.0815,0.0529
21204,-1.0109,0.0107,0.0346,0.0049,-0.0815,0.0682
21214,-1.0062,0.0080,0.0302,0.0507,-0.0967,-0.0082
21224,-1.0094,0.0092,0.0368,-0.0562,0.0712,0.0071
21234,-1.0067,0.0085,0.0326,-0.0104,0.0407,-0.0234
21244,-1.0050,0.0116,0.0336,-0.0256,0.0865,-0.0692
21254,-1.0060,0.0077,0.0336,-0.0562,0.1323,-0.0387
21264,-1.0079,0.0114,0.0290,0.0202,0.2392,-0.0540
21274,-1.0128,0.0085,0.0239,0.0049,0.1781,0.0224
21284,-1.0143,0.0055,0.0307,-0.0562,0.0712,-0.0692
21294,-1.0084,0.0090,0.0235,-0.0104,0.0865,-0.1456
21304,-1.0067,0.0087,0.0237,0.0202,0.0407,-0.1761
21314,-1.0067,0.0124,0.0319,-0.1020,0.0407,-0.0540
21324,-1.0143,0.0085,0.0256,0.0202,0.1170,-0.1150
21334,-1.0106,0.0085,0.0259,0.0965,-0.0662,-0.0082
21344,-1.0086,0.0065,0.0261,0.0049,-0.0509,-0.0845
21354,-1.0040,0.0038,0.0317,0.0202,-0.0967,0.0529
21364,-1.0055,0.0102,0.0302,-0.0104,-0.0356,0.0834
21374,-1.0155,0.0073,0.0251,0.0202,0.0407,-0.0082
21384,-1.0113,0.0060,0.0290,0.0660,-0.0204,0.0682
21394,-1.0111,0.0104,0.0278,0.0812,-0.0815,0.0834
21404,-1.0084,0.0104,0.0285,0.0812,-0.1578,0.0224
21414,-1.0015,0.0126,0.0355,0.0660,-0.0967,-0.0234
21424,-1.0045,0.0158,0.0237,0.0660,0.0712,-0.0082
21434,-1.0128,0.0114,0.0307,0.0202,0.1476,0.0071
21444,-1.0160,0.0087,0.0239,-0.0256,0.1323,-0.0540
21454,-1.0126,0.0104,0.0348,-0.0409,-0.0509,-0.0692
21464,-1.0006,0.0082,0.0331,0.0660,-0.0509,-0.0234
21474,-1.0074,0.0065,0.0266,0.0202,0.0560,-0.1150
21484,-1.0074,0.0060,0.0300,0.0049,0.1018,0.0071
21494,-1.0055,0.0094,0.0322,0.0507,0.1476,-0.0540
21504,-1.0111,0.0087,0.0249,-0.1020,0.1170,-0.0234
21514,-1.0079,0.0038,0.0334,-0.0409,0.0865,-0.0234
21524,-1.0133,0.0075,0.0264,-0.0104,0.0254,-0.0387
21534,-1.0089,0.0080,0.0297,0.0354,-0.0204,-0.0845
21544,-1.0042,0.0087,0.0174,0.0354,0.0254,0.0682
21554,-1.0079,0.0126,0.0244,0.0507,0.1628,0.0529
21564,-1.0079,0.0109,0.0285,0.0507,0.0560,-0.0082
21574,-1.0126,0.0107,0.0264,-0.0256,0.0407,0.0376
21584,-1.0074,0.0070,0.0326,0.0049,-0.0356,-0.0387
21594,-1.0069,0.0092,0.0324,-0.0256,-0.1120,0.0224
21604,-1.0064,0.0043,0.0322,-0.0409,0.0560,-0.0082
21614,-1.0052,0.0080,0.0319,-0.0715,0.0865,-0.0082
21624,-1.0077,0.0060,0.0326,-0.0104,0.0865,0.0071
21634,-1.0094,0.0051,0.0293,-0.1173,0.0102,0.0682
21644,-1.0082,0.0119,0.0305,-0.0409,0.0712,-0.0387
21654,-1.0064,0.0082,0.0283,-0.0256,0.1018,-0.0234
21664,-1.0072,0.0116,0.0300,-0.0409,0.1170,-0.0540
21674,-1.0126,0.0148,0.0273,-0.0104,0.1323,-0.0082
21684,-1.0045,0.0112,0.0334,-0.0256,0.0560,-0.0387
21694,-1.0052,0.0097,0.0278,-0.0256,0.1323,-0.0234
21704,-1.0089,0.0085,0.0237,-0.0409,0.1018,-0.0845
21714,-1.0096,0.0058,0.0302,-0.0409,0.0254,-0.0540
21724,-1.0064,0.0070,0.0280,0.0202,-0.0815,-0.1150
21734,-1.0042,0.0031,0.0297,-0.0256,-0.0356,-0.1150
21744,-1.0084,0.0073,0.0280,0.0660,0.0102,0.0071
21754,-1.0128,0.0085,0.0242,0.0660,-0.0356,-0.0234
21764,-1.0111,0.0097,0.0244,0.0812,-0.0356,-0.0234
21774,-1.0060,0.0090,0.0288,0.1118,-0.0967,-0.1150
21784,-1.0096,0.0097,0.0278,0.0507,-0.1578,0.0529
21794,-1.0052,0.0119,0.0312,0.0354,-0.1731,0.0682
21804,-1.0067,0.0131,0.0370,0.0507,-0.1731,-0.0082
21814,-1.0052,0.0075,0.0339,0.0049,-0.1425,0.0834
21824,-1.0057,0.0073,0.0329,0.0202,0.0865,-0.0082
21834,-1.0109,0.0094,0.0288,0.0049,0.0865,-0.0234
21844,-1.0099,0.0065,0.0346,-0.0715,0.0560,0.0071
21854,-1.0074,0.0092,0.0276,-0.0715,0.0254,-0.0234
21864,-1.0040,0.0143,0.0314,-0.0562,0.0712,-0.0082
21874,-1.0101,0.0102,0.0288,-0.0409,0.1170,-0.0234
21884,-1.0089,0.0129,0.0244,0.0049,0.1323,-0.1150
21894,-1.0136,0.0114,0.0251,0.0354,0.1781,-0.0387
21904,-1.0116,0.0077,0.0312,0.0202,0.1476,0.0071
21914,-1.0077,0.0077,0.0285,-0.0104,0.0407,-0.0234
21924,-1.0084,0.0063,0.0271,-0.0409,0.0712,-0.1456
21934,-1.0106,0.0070,0.0300,-0.0562,0.0712,-0.0998
21944,-1.0189,0.0068,0.0215,-0.0256,0.0712,-0.0387
21954,-1.0216,0.0068,0.0208,0.0354,-0.0509,-0.0845
21964,-1.0001,-0.0028,0.0268,-0.0409,-0.0662,-0.0082
21974,-0.9868,0.0080,0.0329,-0.0104,-0.0051,-0.0082
21984,-1.0121,0.0051,0.0285,0.0507,0.0712,0.0071
21994,-1.0020,0.0094,0.0310,0.0354,-0.1120,0.0529
22004,-1.0060,0.0077,0.0317,0.0049,-0.0662,-0.0387
22014,-1.0050,0.0080,0.0310,-0.0562,0.0102,-0.0082
22024,-1.0042,0.0138,0.0283,0.0202,0.0407,-0.0387
22034,-1.0123,0.0070,0.0285,-0.0104,-0.0051,-0.0082
22044,-1.0008,0.0107,0.0348,-0.0409,-0.1120,-0.0387
22054,-0.9996,0.0046,0.0278,-0.0104,0.0712,0.0987
22064,-1.0094,0.0097,0.0288,-0.1173,0.0865,-0.1303
22074,-1.0136,0.0092,0.0261,-0.0256,0.1018,-0.0540
22084,-1.0086,0.0107,0.0242,0.0507,0.0865,-0.0234
22094,-1.0067,0.0070,0.0247,0.0812,-0.0204,-0.0845
22104,-1.0042,0.0104,0.0271,0.0202,0.0712,-0.0234
22114,-1.0109,0.0107,0.0261,-0.1020,0.2392,0.0529
22124,-1.0104,0.0119,0.0215,-0.0562,0.1628,0.0376
22134,-1.0121,0.0090,0.0230,-0.0715,0.1476,-0.0540
22144,-1.0033,0.0073,0.0312,-0.0409,0.1323,-0.0082
22154,-1.0079,0.0077,0.0266,-0.0104,0.0865,-0.0234
22164,-1.0084,0.0087,0.0307,-0.0409,-0.0509,-0.0234
22174,-1.0023,0.0058,0.0329,0.0049,0.0254,-0.0998
22184,-1.0062,0.0116,0.0285,-0.0409,0.0407,-0.0998
22194,-1.0062,0.0077,0.0256,-0.0409,0.1781,0.0529
22204,-1.0111,0.0063,0.0288,-0.0409,0.1476,0.0376
22214,-1.0113,0.0041,0.0283,-0.0562,0.1018,0.0987
22224,-1.0096,0.0063,0.0310,0.0049,0.1018,0.0071
22234,-1.0094,0.0075,0.0278,0.0049,0.0407,0.0376
22244,-1.0094,0.0080,0.0283,0.0812,-0.0204,0.0529
22254,-1.0055,0.0114,0.0278,0.1118,-0.0815,-0.0234
22264,-1.0057,0.0109,0.0222,0.0507,-0.1273,0.0529
22274,-1.0099,0.0092,0.0218,0.0354,-0.0204,0.1140
22284,-1.0099,0.0112,0.0343,0.0049,0.0865,0.0834
22294,-1.0111,0.0085,0.0264,0.0202,-0.0204,0.0987
22304,-1.0069,0.0080,0.0293,0.0049,-0.1273,0.0987
22314,-1.0099,0.0065,0.0295,-0.0256,-0.1425,0.0682
22324,-1.0069,0.0063,0.0266,0.0202,-0.1120,0.1292
22334,-0.9979,0.0134,0.0310,0.0965,-0.0967,0.0224
22344,-1.0079,0.0097,0.0355,0.0049,-0.1120,0.0071
22354,-1.0099,0.0104,0.0295,-0.0104,-0.0356,-0.0234
22364,-1.0138,0.0075,0.0293,-0.0104,-0.0509,0.0071
22374,-1.0084,0.0107,0.0273,-0.0715,-0.0815,0.0071
22384,-1.0060,0.0051,0.0242,-0.0562,-0.0509,-0.0234
22394,-1.0126,0.0116,0.0249,-0.0104,-0.0509,-0.0082
22404,-1.0096,0.0134,0.0264,-0.0562,-0.0204,-0.0387
22414,-1.0079,0.0146,0.0290,-0.0715,0.1018,-0.0387
22424,-1.0069,0.0138,0.0297,-0.0867,0.0865,-0.0540
22434,-1.0089,0.0073,0.0278,-0.0256,0.1781,-0.0845
22444,-1.0069,0.0094,0.0264,-0.0409,0.0712,-0.0998
22454,-1.0096,0.0043,0.0254,-0.0256,-0.0509,-0.1456
22464,-1.0050,0.0073,0.0276,-0.0104,-0.0815,-0.2372
22474,-1.0035,0.0021,0.0312,0.0049,-0.0204,-0.1303
22484,-1.0040,0.0090,0.0239,0.0049,0.0102,-0.0387
22494,-1.0055,0.0051,0.0285,-0.0256,0.0102,-0.0998
22504,-1.0089,0.0031,0.0256,-0.0867,0.0712,-0.0540
22514,-1.0104,0.0109,0.0264,0.0354,0.0102,-0.0082
22524,-1.0082,0.0058,0.0293,-0.0409,-0.0662,0.0834
22534,-1.0040,0.0097,0.0259,-0.0256,0.0102,0.0071
22544,-1.0052,0.0121,0.0247,0.0049,-0.0509,0.0529
22554,-1.0123,0.0099,0.0288,-0.0409,-0.0967,0.1292
22564,-1.0060,0.0109,0.0256,-0.0715,-0.0967,0.1292
22574,-1.0082,0.0109,0.0297,-0.0867,0.0560,0.0376
22584,-1.0069,0.0136,0.0278,-0.0409,-0.0204,0.0376
22594,-1.0153,0.0126,0.0239,0.0507,-0.0509,-0.0387
22604,-1.0155,0.0138,0.0198,0.0965,-0.0356,-0.0998
22614,-1.0109,0.0099,0.0225,0.1423,-0.0815,-0.0998
22624,-1.0033,0.0109,0.0346,0.0660,-0.0967,-0.1150
22634,-1.0094,0.0085,0.0317,0.0049,-0.0815,-0.0540
22644,-1.0074,0.0087,0.0254,-0.0867,0.0102,-0.0845
22654,-1.0094,0.0036,0.0382,-0.1631,0.1018,-0.0845
22664,-1.0106,0.0007,0.0285,-0.0562,0.0407,-0.0234
22674,-1.0084,0.0073,0.0198,0.0202,0.0712,0.0071
22684,-1.0091,0.0046,0.0254,0.0660,0.0254,-0.0387
22694,-1.0111,0.0055,0.0322,0.0660,0.0712,-0.0082
22704,-1.0050,0.0146,0.0305,-0.0409,0.1781,0.0376
22714,-1.0104,0.0124,0.0235,-0.1325,0.2392,-0.0234
22724,-1.0077,0.0107,0.0339,-0.1173,0.1781,-0.0082
22734,-1.0096,0.0102,0.0244,-0.1173,0.1323,0.0224
22744,-1.0079,0.0107,0.0249,-0.1020,0.2086,-0.0845
22754,-1.0113,0.0094,0.0273,-0.0562,0.0865,-0.0234
22764,-1.0091,0.0109,0.0235,-0.0104,0.0254,-0.0387
22774,-1.0037,0.0092,0.0278,0.0354,0.0865,-0.0845
22784,-1.0079,0.0051,0.0256,-0.0562,0.0254,-0.0845
22794,-1.0037,0.0065,0.0261,0.0049,-0.0356,0.0224
22804,-1.0121,0.0043,0.0261,-0.0409,0.0102,-0.0234
22814,-1.0089,0.0026,0.0261,-0.1325,0.0407,-0.0387
22824,-1.0074,-0.0028,0.0237,-0.0867,-0.0356,-0.0540
22834,-1.0067,0.0011,0.0230,0.0049,-0.0204,0.0376
22844,-1.0055,0.0073,0.0339,0.0507,-0.0204,0.0224
22854,-1.0040,0.0107,0.0307,0.0507,-0.0662,0.0376
22864,-1.0013,0.0126,0.0365,0.0965,0.0254,0.0834
22874,-1.0118,0.0153,0.0285,0.0507,-0.0051,0.1445
22884,-1.0091,0.0212,0.0278,-0.0256,0.0407,0.0834
22894,-1.0133,0.0148,0.0293,-0.1020,0.0102,0.0224
22904,-1.0079,0.0129,0.0280,-0.0409,-0.0662,-0.0234
22914,-1.0060,0.0102,0.0261,0.0354,-0.0356,-0.0845
22924,-1.0033,0.0097,0.0336,-0.0562,-0.1273,-0.0998
