timestamp_ms,ax,ay,az,gx,gy,gz
3964,-0.0564,-0.0095,1.0166,0.1238,-0.1096,-0.1399
3974,-0.0581,-0.0090,1.0151,0.0169,-0.1707,0.0280
3984,-0.0520,-0.0088,1.0117,-0.0441,-0.1249,0.0738
3994,-0.0471,-0.0051,1.0127,-0.0594,-0.0944,0.1502
4004,-0.0447,-0.0061,1.0122,-0.0289,-0.0485,0.1196
4014,-0.0447,-0.0054,1.0120,-0.0594,0.0278,0.0280
4024,-0.0403,-0.0117,1.0183,-0.0747,0.1194,0.0280
4034,-0.0525,-0.0129,1.0127,-0.1052,0.2110,0.0280
4044,-0.0591,-0.0154,1.0183,-0.1357,0.2415,0.0585
4054,-0.0601,-0.0144,1.0232,-0.1663,0.2110,-0.0331
4064,-0.0693,-0.0127,1.0205,-0.1205,0.1957,0.0127
4074,-0.0618,-0.0178,1.0181,-0.1205,0.1194,0.1196
4084,-0.0671,-0.0198,1.0205,-0.0136,0.0889,0.0891
4094,-0.0623,-0.0151,1.0186,0.0780,0.0431,0.0891
4104,-0.0598,-0.0103,1.0151,0.1238,-0.0944,0.0280
4114,-0.0618,-0.0161,1.0164,0.1085,-0.0944,-0.0331
4124,-0.0598,-0.0110,1.0103,0.1391,-0.1402,-0.0331
4134,-0.0588,-0.0073,1.0100,0.0322,-0.1096,-0.0025
4144,-0.0515,-0.0039,1.0098,0.0322,-0.0791,0.0738
4154,-0.0486,-0.0044,1.0081,0.0475,-0.1096,0.0280
4164,-0.0449,-0.0073,1.0071,-0.0747,0.0125,0.1196
4174,-0.0454,-0.0044,1.0110,-0.1357,-0.0180,0.1044
4184,-0.0442,-0.0083,1.0142,-0.0594,0.1041,0.0585
4194,-0.0469,-0.0103,1.0151,-0.1205,0.2110,0.0433
4204,-0.0540,-0.0103,1.0210,-0.1205,0.2568,-0.0789
4214,-0.0566,-0.0142,1.0161,-0.1052,0.1805,-0.0025
4224,-0.0613,-0.0171,1.0217,-0.1205,0.2415,-0.0025
4234,-0.0615,-0.0117,1.0222,-0.0441,0.0736,0.0280
4244,-0.0620,-0.0171,1.0215,-0.0136,0.1347,0.0433
4254,-0.0645,-0.0132,1.0164,0.0933,0.0431,0.0280
4264,-0.0637,-0.0112,1.0178,0.0017,-0.0333,-0.0025
4274,-0.0645,-0.0093,1.0134,0.1391,-0.0791,0.0585
4284,-0.0569,-0.0059,1.0171,0.1544,-0.1402,-0.0178
4294,-0.0559,-0.0103,1.0146,0.0933,-0.1860,-0.0483
4304,-0.0537,-0.0037,1.0164,0.0169,-0.1096,-0.0636
4314,-0.0542,-0.0107,1.0115,-0.0289,-0.1096,-0.0178
4324,-0.0500,-0.0103,1.0120,-0.0441,-0.0638,-0.0789
4334,-0.0532,-0.0110,1.0168,-0.0289,-0.0027,-0.0178
4344,-0.0505,-0.0071,1.0173,-0.0747,-0.0027,-0.0331
4354,-0.0505,-0.0105,1.0137,-0.1052,0.0278,-0.0178
4364,-0.0540,-0.0154,1.0178,-0.0747,-0.0027,0.0585
4374,-0.0579,-0.0151,1.0195,-0.0899,0.1347,-0.0636
4384,-0.0537,-0.0139,1.0166,-0.0289,0.1194,-0.1399
4394,-0.0586,-0.0168,1.0134,-0.0289,0.0736,-0.0483
4404,-0.0635,-0.0125,1.0203,0.0017,0.0583,-0.0178
4414,-0.0601,-0.0183,1.0183,-0.0136,0.0431,-0.0025
4424,-0.0627,-0.0166,1.0198,0.0322,-0.0180,-0.0178
4434,-0.0610,-0.0139,1.0168,0.0627,-0.0333,0.0738
4444,-0.0581,-0.0146,1.0139,0.0169,-0.1860,0.0433
4454,-0.0564,-0.0137,1.0137,0.0475,-0.0944,0.0433
4464,-0.0562,-0.0137,1.0146,0.1085,-0.0944,-0.0331
4474,-0.0515,-0.0117,1.0173,0.0933,-0.0027,-0.1094
4484,-0.0576,-0.0056,1.0115,0.0169,-0.0791,-0.0331
4494,-0.0518,-0.0010,1.0034,0.0322,-0.0027,-0.2010
4504,-0.0688,-0.0081,1.0220,-0.1510,-0.1249,-0.4300
4514,-0.0876,-0.0125,1.0300,-0.0594,-0.2470,-0.3231
4524,-0.0706,-0.0137,0.9963,0.0780,-0.2623,-0.0331
4534,-0.0518,-0.0090,1.0071,-0.0289,-0.1249,0.2570
4544,-0.0325,-0.0071,1.0178,-0.1510,-0.1096,0.2723
4554,-0.0327,-0.0154,1.0266,-0.0899,-0.0791,0.1349
4564,-0.0391,-0.0107,1.0010,0.0322,-0.1096,-0.0941
4574,-0.0537,-0.0090,0.9993,-0.0594,-0.0027,-0.2468
4584,-0.0620,-0.0144,1.0190,-0.1357,0.1194,-0.3537
4594,-0.0713,-0.0156,1.0254,-0.1205,0.0431,-0.2163
4604,-0.0701,-0.0168,1.0178,0.0475,0.0278,-0.0178
4614,-0.0605,-0.0125,0.9993,0.1544,0.0583,0.0127
4624,-0.0544,-0.0154,1.0151,0.0169,0.0889,0.0891
4634,-0.0481,-0.0159,1.0193,0.0017,-0.0638,0.0280
4644,-0.0459,-0.0159,1.0171,0.0933,-0.0027,-0.0025
4654,-0.0586,-0.0105,1.0115,0.1238,-0.0791,-0.0789
4664,-0.0698,-0.0071,1.0095,0.1085,-0.0791,-0.0331
4674,-0.0605,-0.0105,1.0193,0.0475,-0.0485,-0.0178
4684,-0.0569,-0.0054,1.0139,0.0627,-0.0333,0.0433
4694,-0.0493,-0.0046,1.0112,0.0475,-0.0180,0.1044
4704,-0.0464,-0.0105,1.0100,0.0017,0.0583,0.0585
4714,-0.0476,-0.0132,1.0195,-0.0899,-0.0027,0.0433
4724,-0.0498,-0.0127,1.0120,-0.1052,0.0736,-0.1094
4734,-0.0542,-0.0132,1.0154,-0.0594,0.1041,-0.1247
4744,-0.0640,-0.0142,1.0093,-0.0747,0.1041,-0.0483
4754,-0.0645,-0.0186,1.0188,-0.0441,0.1041,-0.0483
4764,-0.0618,-0.0181,1.0186,0.0780,0.1041,0.0280
4774,-0.0601,-0.0117,1.0098,0.0627,-0.0180,0.0585
4784,-0.0593,-0.0117,1.0115,0.0322,-0.0027,0.0585
4794,-0.0540,-0.0117,1.0144,0.0322,-0.0485,0.0280
4804,-0.0544,-0.0134,1.0120,0.1391,-0.0638,0.0127
4814,-0.0540,-0.0071,1.0139,0.0933,0.0278,-0.0025
4824,-0.0535,-0.0071,1.0105,0.0322,-0.0638,-0.0025
4834,-0.0586,-0.0078,1.0146,0.0169,-0.0333,-0.0025
4844,-0.0579,-0.0054,1.0054,0.0169,-0.1096,-0.0636
4854,-0.0603,-0.0061,1.0139,-0.0747,-0.0333,-0.0483
4864,-0.0566,-0.0085,1.0093,-0.0441,-0.0027,-0.0789
4874,-0.0559,-0.0093,1.0085,-0.0747,0.0431,-0.0331
4884,-0.0581,-0.0120,1.0203,-0.0594,-0.0180,-0.0483
4894,-0.0564,-0.0122,1.0166,-0.0289,-0.0333,-0.0025
4904,-0.0579,-0.0164,1.0127,-0.0594,-0.0027,0.0127
4914,-0.0562,-0.0178,1.0181,-0.0747,0.0431,0.0280
4924,-0.0544,-0.0154,1.0137,0.0627,-0.0791,0.0585
4934,-0.0552,-0.0181,1.0144,0.0169,-0.0485,-0.0025
4944,-0.0547,-0.0154,1.0105,-0.0136,0.0583,-0.0025
4954,-0.0579,-0.0149,1.0176,0.0627,0.0278,-0.0025
4964,-0.0559,-0.0115,1.0151,0.0780,-0.0333,0.0280
4974,-0.0559,-0.0117,1.0127,0.0627,-0.0027,0.0585
4984,-0.0610,-0.0095,1.0173,0.0933,0.0736,-0.0331
4994,-0.0596,-0.0098,1.0193,0.0322,0.0583,-0.0331
5004,-0.0564,-0.0107,1.0066,0.0627,0.0736,-0.0025
5014,-0.0542,-0.0107,1.0107,0.0322,-0.0791,0.0891
5024,-0.0559,-0.0059,1.0139,-0.0289,-0.0638,0.0280
5034,-0.0554,-0.0105,1.0164,-0.0136,-0.0027,0.0585
5044,-0.0552,-0.0164,1.0098,0.0017,-0.0333,-0.0636
5054,-0.0583,-0.0066,1.0112,0.0169,-0.0333,-0.1247
5064,-0.0576,-0.0134,1.0186,-0.0594,0.0431,-0.0483
5074,-0.0576,-0.0137,1.0190,-0.0289,0.0125,-0.0178
5084,-0.0596,-0.0127,1.0161,-0.0136,0.0125,-0.0025
5094,-0.0576,-0.0139,1.0181,0.0322,-0.0485,0.0738
5104,-0.0583,-0.0120,1.0144,0.0017,-0.0333,0.0280
5114,-0.0547,-0.0129,1.0134,0.0780,-0.0180,0.0585
5124,-0.0532,-0.0105,1.0159,0.0169,-0.0944,-0.0025
5134,-0.0576,-0.0093,1.0137,0.0169,-0.0333,-0.0331
5144,-0.0598,-0.0112,1.0081,0.0475,-0.0027,-0.0025
5154,-0.0552,-0.0117,1.0110,-0.0136,-0.0333,-0.0178
5164,-0.0522,-0.0095,1.0154,-0.0747,0.0125,-0.0178
5174,-0.0571,-0.0083,1.0161,0.0169,0.0125,-0.0483
5184,-0.0544,-0.0129,1.0117,-0.1205,0.0125,-0.0178
5194,-0.0581,-0.0137,1.0090,-0.1205,0.0736,-0.0331
5204,-0.0581,-0.0115,1.0105,-0.0441,-0.0333,-0.0178
5214,-0.0586,-0.0115,1.0156,-0.0594,-0.0180,0.0127
5224,-0.0586,-0.0100,1.0156,0.0322,-0.0333,-0.0025
5234,-0.0583,-0.0156,1.0137,0.0169,-0.0485,-0.0178
5244,-0.0581,-0.0107,1.0149,-0.0289,-0.0180,0.0738
5254,-0.0508,-0.0117,1.0144,-0.0899,-0.0180,0.0433
5264,-0.0537,-0.0093,1.0134,-0.0136,-0.0027,0.0738
5274,-0.0515,-0.0042,1.0112,-0.0289,-0.0180,0.0433
5284,-0.0505,-0.0146,1.0142,-0.0441,-0.0333,0.0280
5294,-0.0535,-0.0085,1.0181,-0.0136,-0.0180,-0.0178
5304,-0.0569,-0.0088,1.0176,-0.0136,0.0125,-0.0636
5314,-0.0601,-0.0127,1.0161,0.0169,0.0889,-0.0331
5324,-0.0613,-0.0110,1.0127,-0.0594,0.0125,-0.0636
5334,-0.0620,-0.0164,1.0139,-0.0136,0.0125,-0.0483
5344,-0.0576,-0.0115,1.0098,0.0627,0.0278,-0.0178
5354,-0.0581,-0.0149,1.0156,0.0322,0.1194,-0.0025
5364,-0.0574,-0.0122,1.0093,0.0322,0.0125,0.0127
5374,-0.0559,-0.0115,1.0193,0.0169,-0.0027,-0.0636
5384,-0.0562,-0.0120,1.0139,0.0627,-0.0180,-0.0025
5394,-0.0544,-0.0127,1.0105,0.0169,-0.0638,-0.0331
5404,-0.0532,-0.0129,1.0171,-0.0441,-0.0027,-0.0178
5414,-0.0549,-0.0098,1.0159,0.0169,-0.0485,-0.0941
5424,-0.0559,-0.0125,1.0107,0.0322,-0.0027,-0.0789
5434,-0.0544,-0.0105,1.0100,0.0169,0.0278,-0.0178
5444,-0.0571,-0.0100,1.0149,0.0475,0.1041,0.0127
5454,-0.0554,-0.0115,1.0117,0.0475,0.1041,0.0433
5464,-0.0566,-0.0085,1.0137,0.0017,0.0125,0.0891
5474,-0.0544,-0.0095,1.0105,0.0169,-0.0333,0.0738
5484,-0.0557,-0.0129,1.0144,0.0169,-0.0485,-0.0483
5494,-0.0544,-0.0134,1.0193,0.0169,-0.0944,-0.0789
5504,-0.0552,-0.0095,1.0144,0.0475,-0.0944,-0.0483
5514,-0.0505,-0.0129,1.0127,-0.0136,-0.0333,0.0280
5524,-0.0535,-0.0100,1.0166,0.0322,-0.0333,0.0433
5534,-0.0581,-0.0105,1.0144,-0.0136,-0.0180,0.0127
5544,-0.0525,-0.0120,1.0134,0.0017,-0.0180,0.0891
5554,-0.0549,-0.0134,1.0115,0.0322,0.0125,0.0280
5564,-0.0566,-0.0156,1.0134,-0.0747,-0.0485,0.0127
5574,-0.0581,-0.0132,1.0129,0.0169,-0.0027,-0.0789
5584,-0.0549,-0.0098,1.0117,0.0322,0.0736,0.0127
5594,-0.0608,-0.0139,1.0144,-0.0136,-0.0485,-0.0025
5604,-0.0596,-0.0120,1.0178,-0.0136,-0.0027,-0.0025
5614,-0.0564,-0.0098,1.0142,-0.0289,-0.0638,-0.0025
5624,-0.0527,-0.0100,1.0154,-0.0441,-0.0333,-0.0178
5634,-0.0566,-0.0095,1.0144,0.0475,-0.0333,-0.0025
5644,-0.0549,-0.0120,1.0061,0.0780,-0.0791,-0.0178
5654,-0.0552,-0.0129,1.0164,-0.0441,-0.0333,-0.0025
5664,-0.0571,-0.0073,1.0120,0.0475,-0.0180,-0.0483
5674,-0.0557,-0.0127,1.0205,0.0017,0.0125,-0.0178
5684,-0.0554,-0.0078,1.0144,-0.0441,-0.0791,-0.0178
5694,-0.0586,-0.0115,1.0168,-0.0594,-0.0791,-0.0789
5704,-0.0566,-0.0112,1.0173,-0.0136,0.0125,-0.0483
5714,-0.0571,-0.0156,1.0120,-0.0747,-0.0027,-0.0025
5724,-0.0571,-0.0115,1.0171,-0.0136,0.0278,-0.0025
5734,-0.0520,-0.0112,1.0154,0.0322,0.0889,0.0280
5744,-0.0554,-0.0107,1.0161,0.0322,-0.0027,-0.0178
5754,-0.0515,-0.0112,1.0105,-0.0136,-0.0180,-0.0331
5764,-0.0557,-0.0125,1.0156,0.0627,-0.0027,-0.0025
5774,-0.0537,-0.0110,1.0142,-0.0136,-0.0485,-0.0483
5784,-0.0557,-0.0095,1.0122,0.0322,-0.0333,-0.0483
5794,-0.0547,-0.0134,1.0181,-0.0441,-0.0027,-0.0331
5804,-0.0605,-0.0105,1.0146,-0.0747,-0.0027,-0.0941
5814,-0.0554,-0.0139,1.0173,-0.0899,-0.0180,-0.0025
5824,-0.0588,-0.0103,1.0125,-0.0747,-0.0333,-0.0025
5834,-0.0579,-0.0137,1.0134,-0.0441,-0.0333,0.0280
5844,-0.0579,-0.0115,1.0188,0.0780,-0.1096,-0.0483
5854,-0.0591,-0.0105,1.0112,0.0169,-0.0638,-0.0025
5864,-0.0544,-0.0122,1.0161,-0.0136,-0.0180,-0.0178
5874,-0.0574,-0.0134,1.0166,0.0475,-0.0180,-0.0636
5884,-0.0571,-0.0117,1.0112,0.0475,-0.0485,-0.0483
5894,-0.0564,-0.0100,1.0083,-0.0441,-0.0485,0.0127
5904,-0.0564,-0.0139,1.0129,-0.0899,-0.0485,0.0127
5914,-0.0591,-0.0103,1.0120,-0.0136,-0.0638,0.0127
5924,-0.0571,-0.0100,1.0159,0.0169,-0.0638,0.0127
5934,-0.0544,-0.0173,1.0081,0.0322,-0.0485,0.0280
5944,-0.0562,-0.0120,1.0161,0.0322,-0.0485,-0.0178
5954,-0.0603,-0.0095,1.0208,-0.0594,-0.0180,-0.0941
5964,-0.0583,-0.0122,1.0078,0.0017,-0.0791,-0.0636
5974,-0.0579,-0.0085,1.0227,-0.0136,-0.0027,-0.0025
5984,-0.0579,-0.0112,1.0176,0.0475,0.0278,0.0280
5994,-0.0574,-0.0122,1.0127,0.0017,-0.0027,0.0891
6004,-0.0535,-0.0117,1.0046,0.0322,-0.0791,0.0127
6014,-0.0520,-0.0051,1.0039,-0.0289,-0.0791,0.0433
6024,-0.0505,-0.0122,1.0229,-0.0289,-0.0027,-0.0483
6034,-0.0537,-0.0120,1.0146,-0.0747,0.0125,-0.0789
6044,-0.0530,-0.0083,1.0127,-0.0594,0.0125,-0.0941
6054,-0.0576,-0.0117,1.0200,-0.0289,-0.0333,-0.0789
6064,-0.0586,-0.0125,1.0171,0.0017,0.0583,-0.0789
6074,-0.0571,-0.0144,1.0151,0.0475,0.0125,-0.0025
6084,-0.0576,-0.0134,1.0117,0.0322,0.0431,-0.0178
6094,-0.0613,-0.0120,1.0159,-0.0136,0.0431,-0.0331
6104,-0.0583,-0.0115,1.0122,0.0017,-0.0027,-0.0789
6114,-0.0562,-0.0129,1.0142,0.0169,-0.0180,-0.0636
6124,-0.0562,-0.0112,1.0227,0.0475,0.0125,0.0433
6134,-0.0576,-0.0105,1.0154,0.0627,-0.0638,-0.0178
6144,-0.0557,-0.0095,1.0083,0.0017,-0.0027,-0.0331
6154,-0.0540,-0.0110,1.0190,-0.0747,-0.0944,-0.0636
6164,-0.0566,-0.0098,1.0105,0.0322,-0.0791,-0.1705
6174,-0.0488,-0.0083,1.0076,0.0475,-0.0638,-0.0789
6184,-0.0544,-0.0095,1.0127,-0.0136,0.0431,-0.0483
6194,-0.0532,-0.0129,1.0273,-0.0441,0.0125,-0.0331
6204,-0.0549,-0.0151,1.0190,-0.0441,0.0125,0.0127
6214,-0.0569,-0.0117,1.0066,0.0933,-0.0027,-0.0941
6224,-0.0544,-0.0090,1.0139,-0.0899,0.0125,-0.0789
6234,-0.0610,-0.0105,1.0225,0.0169,-0.0180,-0.0941
6244,-0.0596,-0.0100,1.0154,0.1085,0.0583,-0.0178
6254,-0.0583,-0.0095,1.0112,0.0780,-0.0638,-0.0025
6264,-0.0591,-0.0095,1.0146,0.0169,-0.0180,0.0585
6274,-0.0566,-0.0103,1.0210,-0.0136,-0.0180,-0.0025
6284,-0.0562,-0.0090,1.0139,0.0627,-0.0638,-0.0941
6294,-0.0510,-0.0098,1.0115,0.0475,-0.0333,-0.0941
6304,-0.0530,-0.0100,1.0149,-0.0136,0.0736,-0.0789
6314,-0.0537,-0.0139,1.0134,-0.0747,0.0125,-0.1247
6324,-0.0581,-0.0090,1.0212,0.0169,-0.0333,-0.0636
6334,-0.0554,-0.0142,1.0166,-0.0136,-0.0485,-0.0178
6344,-0.0532,-0.0166,1.0122,-0.0136,0.0736,-0.0789
6354,-0.0554,-0.0122,1.0137,-0.0747,0.0278,-0.0331
6364,-0.0530,-0.0125,1.0156,-0.0289,-0.0333,-0.0025
6374,-0.0569,-0.0156,1.0161,0.0322,0.0431,-0.0636
6384,-0.0562,-0.0168,1.0137,0.0169,0.0431,-0.0483
6394,-0.0535,-0.0115,1.0164,0.0169,-0.0027,0.0127
6404,-0.0537,-0.0137,1.0178,0.0475,-0.0027,-0.0789
6414,-0.0549,-0.0134,1.0129,0.0169,-0.0027,-0.0178
6424,-0.0569,-0.0107,1.0120,0.0017,0.0889,0.0433
6434,-0.0554,-0.0083,1.0200,0.0475,0.0583,-0.0331
6444,-0.0552,-0.0110,1.0115,-0.0289,0.0278,0.0280
6454,-0.0562,-0.0103,1.0107,0.0780,-0.0485,-0.0178
6464,-0.0535,-0.0066,1.0115,0.0627,-0.0638,-0.0483
6474,-0.0576,-0.0071,1.0168,-0.0289,-0.0333,-0.0025
6484,-0.0542,-0.0076,1.0144,-0.0747,-0.0638,-0.0483
6494,-0.0554,-0.0078,1.0178,-0.1205,-0.0638,-0.0331
6504,-0.0557,-0.0120,1.0095,-0.0899,-0.0027,-0.0941
6514,-0.0608,-0.0146,1.0151,-0.1052,-0.0485,-0.0178
6524,-0.0579,-0.0115,1.0093,-0.0136,-0.0485,-0.0483
6534,-0.0554,-0.0129,1.0156,-0.0289,-0.0638,-0.0178
6544,-0.0559,-0.0110,1.0193,-0.0747,0.0278,-0.0789
6554,-0.0527,-0.0125,1.0171,0.0322,-0.0638,-0.0178
6564,-0.0547,-0.0137,1.0176,0.0627,-0.0638,-0.0941
6574,-0.0535,-0.0154,1.0107,0.0322,-0.0333,-0.1094
6584,-0.0425,-0.0200,1.0181,0.0475,0.0583,-0.0025
6594,-0.0500,-0.0132,1.0188,0.1238,0.0125,-0.0331
6604,-0.0491,-0.0127,1.0122,0.0933,0.0278,-0.0789
6614,-0.0566,-0.0110,1.0151,0.0933,0.0889,-0.1552
6624,-0.0688,-0.0083,1.0217,0.0017,0.0278,-0.0636
6634,-0.0610,-0.0129,1.0117,0.0627,0.0125,-0.0483
6644,-0.0647,-0.0063,1.0081,0.0322,0.0125,-0.0331
6654,-0.0588,-0.0071,1.0129,-0.0136,-0.0180,0.0585
6664,-0.0525,-0.0095,1.0107,0.0475,-0.0180,0.1196
6674,-0.0574,-0.0105,1.0127,-0.0747,0.0125,0.0738
6684,-0.0581,-0.0083,1.0073,-0.0899,-0.0944,0.0127
6694,-0.0588,-0.0085,1.0125,-0.1510,-0.0791,-0.0483
6704,-0.0598,-0.0120,1.0212,-0.1052,-0.0180,-0.0789
6714,-0.0532,-0.0117,1.0210,-0.0441,-0.1707,-0.0331
6724,-0.0540,-0.0146,1.0122,-0.0594,-0.1249,0.0280
6734,-0.0525,-0.0115,1.0203,-0.0594,-0.0791,0.0280
6744,-0.0474,-0.0132,1.0176,-0.0136,-0.0027,0.0280
6754,-0.0547,-0.0144,1.0166,0.0475,0.0125,-0.0636
6764,-0.0535,-0.0144,1.0159,-0.0136,-0.0027,-0.0941
6774,-0.0574,-0.0115,1.0120,0.0475,0.0278,-0.0331
6784,-0.0620,-0.0081,1.0259,0.0322,0.0889,-0.0941
6794,-0.0652,-0.0125,1.0151,0.1238,0.0431,-0.0025
6804,-0.0605,-0.0100,1.0110,0.0475,0.0278,0.0280
6814,-0.0583,-0.0061,1.0105,0.0169,0.0431,0.0127
6824,-0.0566,-0.0078,1.0122,-0.0289,0.0736,-0.0178
6834,-0.0579,-0.0095,1.0107,-0.0441,-0.0333,0.0585
6844,-0.0576,-0.0076,1.0144,-0.0289,-0.0791,0.0280
6854,-0.0571,-0.0122,1.0156,0.0017,-0.0333,-0.0331
6864,-0.0569,-0.0122,1.0103,-0.0136,-0.0180,-0.1094
6874,-0.0579,-0.0122,1.0220,-0.0136,-0.0333,-0.0483
6884,-0.0500,-0.0115,1.0168,-0.0441,0.0278,-0.0178
6894,-0.0476,-0.0134,1.0203,-0.0136,-0.0180,0.1044
6904,-0.0549,-0.0146,1.0151,-0.0747,0.0125,-0.0331
6914,-0.0508,-0.0156,1.0149,-0.0899,0.0278,0.0433
6924,-0.0571,-0.0161,1.0176,0.0475,0.0278,0.0433
6934,-0.0557,-0.0085,1.0137,-0.0136,-0.0180,0.0280
6944,-0.0591,-0.0112,1.0159,-0.0136,0.0431,0.0280
6954,-0.0593,-0.0056,1.0193,0.0627,0.0431,-0.0636
6964,-0.0598,-0.0142,1.0144,0.1238,0.0431,-0.0025
6974,-0.0637,-0.0103,1.0083,0.0169,0.0583,0.0127
6984,-0.0603,-0.0081,1.0115,0.0475,-0.0333,0.0127
6994,-0.0583,-0.0056,1.0176,0.0475,0.0278,0.0585
7004,-0.0564,-0.0098,1.0171,-0.0136,0.0125,-0.0178
7014,-0.0554,-0.0132,1.0134,-0.0289,0.0125,0.0127
7024,-0.0559,-0.0105,1.0159,0.0017,-0.0333,-0.0025
7034,-0.0525,-0.0110,1.0122,-0.0747,-0.0333,0.0127
7044,-0.0564,-0.0137,1.0156,0.0322,-0.1096,-0.0178
7054,-0.0564,-0.0144,1.0222,0.0169,0.0431,-0.0789
7064,-0.0576,-0.0142,1.0159,0.0017,-0.0180,-0.0331
7074,-0.0552,-0.0161,1.0198,-0.0289,0.0125,0.0127
7084,-0.0576,-0.0151,1.0232,0.0933,0.0736,0.0127
7094,-0.0557,-0.0154,1.0176,0.1085,0.0278,-0.0025
7104,-0.0591,-0.0088,1.0166,0.0475,0.0736,-0.0178
7114,-0.0581,-0.0127,1.0068,0.0933,0.0736,-0.0025
7124,-0.0559,-0.0095,1.0107,0.1085,0.0583,0.0280
7134,-0.0601,-0.0110,1.0166,0.0475,0.0736,0.0280
7144,-0.0613,-0.0049,1.0137,0.0017,0.0889,-0.0331
7154,-0.0605,-0.0081,1.0093,0.0475,0.0889,0.0280
7164,-0.0544,-0.0068,1.0156,0.0169,0.0125,0.0127
7174,-0.0591,-0.0066,1.0151,-0.0747,0.0431,-0.0483
7184,-0.0579,-0.0093,1.0137,0.0475,0.0125,0.0280
7194,-0.0557,-0.0117,1.0146,-0.0747,-0.0638,0.0433
7204,-0.0566,-0.0117,1.0181,0.0169,-0.0180,-0.0025
7214,-0.0576,-0.0122,1.0137,0.0017,-0.0027,0.0433
7224,-0.0525,-0.0105,1.0176,-0.0441,-0.0027,-0.0025
7234,-0.0540,-0.0137,1.0100,-0.0747,0.0125,-0.0636
7244,-0.0613,-0.0151,1.0149,-0.0289,-0.0333,-0.0636
7254,-0.0542,-0.0139,1.0193,0.0933,0.0583,-0.0483
7264,-0.0542,-0.0093,1.0210,0.0322,-0.0180,-0.0331
7274,-0.0566,-0.0120,1.0181,0.0475,0.0736,0.0127
7284,-0.0569,-0.0110,1.0120,0.1391,0.0125,0.0127
7294,-0.0542,-0.0120,1.0168,0.0322,0.0278,-0.0789
7304,-0.0557,-0.0112,1.0154,0.0627,0.0736,-0.0178
7314,-0.0576,-0.0081,1.0173,0.0322,-0.0333,-0.0331
7324,-0.0605,-0.0095,1.0122,-0.0136,0.0583,-0.0178
7334,-0.0549,-0.0068,1.0112,0.0017,-0.0027,-0.0789
7344,-0.0559,-0.0090,1.0083,0.0017,-0.0333,-0.1094
7354,-0.0549,-0.0127,1.0176,0.0169,-0.0944,-0.0636
7364,-0.0569,-0.0117,1.0103,0.0169,-0.0027,0.0127
7374,-0.0581,-0.0115,1.0173,0.0475,-0.0485,0.0585
7384,-0.0559,-0.0105,1.0190,-0.0289,-0.0333,0.0585
7394,-0.0588,-0.0068,1.0107,-0.0136,-0.0333,0.0433
7404,-0.0586,-0.0132,1.0122,0.0475,0.0278,-0.0483
7414,-0.0549,-0.0146,1.0159,0.0475,-0.0485,0.0433
7424,-0.0564,-0.0125,1.0171,0.0475,0.0431,0.0433
7434,-0.0549,-0.0151,1.0107,0.0475,0.0583,-0.0178
7444,-0.0552,-0.0073,1.0188,0.0627,-0.0180,-0.0025
7454,-0.0540,-0.0076,1.0142,0.0780,0.0583,-0.0636
7464,-0.0608,-0.0081,1.0159,0.0017,-0.0485,-0.0483
7474,-0.0598,-0.0073,1.0127,0.0017,-0.0485,-0.0483
7484,-0.0554,-0.0112,1.0098,-0.0899,-0.0027,-0.0178
7494,-0.0576,-0.0085,1.0103,-0.0289,0.0736,-0.0025
7504,-0.0583,-0.0100,1.0193,-0.0289,-0.0485,-0.0331
7514,-0.0547,-0.0093,1.0149,-0.1052,-0.0791,-0.0636
7524,-0.0571,-0.0105,1.0178,-0.0594,-0.0485,-0.0483
7534,-0.0542,-0.0107,1.0134,-0.0747,0.0125,0.0738
7544,-0.0566,-0.0168,1.0110,-0.0289,0.0736,-0.0636
7554,-0.0559,-0.0115,1.0188,-0.0441,0.0431,0.0433
7564,-0.0522,-0.0132,1.0066,0.0169,-0.0027,0.0433
7574,-0.0518,-0.0122,1.0139,-0.0441,-0.0027,0.0127
7584,-0.0510,-0.0076,1.0107,-0.0441,-0.0180,0.0433
7594,-0.0554,-0.0100,1.0142,0.0017,-0.0791,-0.0483
7604,-0.0532,-0.0120,1.0090,-0.0136,-0.0180,-0.0941
7614,-0.0557,-0.0103,1.0164,0.0322,0.0431,-0.0178
7624,-0.0603,-0.0078,1.0193,-0.0594,0.0736,0.0127
7634,-0.0625,-0.0105,1.0181,0.0017,0.0278,0.0280
7644,-0.0620,-0.0095,1.0139,0.0169,0.0278,0.0433
7654,-0.0605,-0.0100,1.0125,-0.0899,-0.0180,-0.0483
7664,-0.0559,-0.0110,1.0203,0.0475,-0.0333,-0.0331
7674,-0.0603,-0.0088,1.0081,0.0017,-0.0485,-0.0636
7684,-0.0525,-0.0122,1.0083,0.0322,-0.0791,-0.0636
7694,-0.0532,-0.0127,1.0146,0.0169,0.0278,-0.0025
7704,-0.0503,-0.0125,1.0193,0.0017,0.0125,-0.0178
7714,-0.0513,-0.0122,1.0125,0.0017,0.0125,0.0127
7724,-0.0535,-0.0132,1.0154,0.0475,-0.0485,0.0127
7734,-0.0513,-0.0115,1.0164,0.0322,0.0431,-0.0178
7744,-0.0530,-0.0149,1.0110,0.0475,0.1041,-0.0789
7754,-0.0554,-0.0107,1.0122,0.0169,0.0736,0.0585
7764,-0.0562,-0.0122,1.0117,-0.0441,0.0736,-0.0025
7774,-0.0627,-0.0090,1.0164,-0.0441,0.1041,-0.1094
7784,-0.0637,-0.0127,1.0188,0.0933,0.0889,-0.0636
7794,-0.0642,-0.0115,1.0095,0.0780,0.0278,-0.0941
7804,-0.0662,-0.0081,1.0154,0.0169,0.0125,-0.1247
7814,-0.0581,-0.0115,1.0105,0.0475,-0.0638,0.0585
7824,-0.0554,-0.0081,1.0115,0.0475,-0.0180,0.0738
7834,-0.0508,-0.0125,1.0137,0.0322,-0.0180,0.0433
7844,-0.0518,-0.0110,1.0117,0.0933,-0.0180,0.0433
7854,-0.0513,-0.0112,1.0173,0.0322,-0.0027,0.1349
7864,-0.0476,-0.0063,1.0195,-0.0289,0.1499,0.0891
7874,-0.0483,-0.0088,1.0195,0.0017,0.0431,0.0891
7884,-0.0530,-0.0085,1.0095,0.0017,0.0583,-0.0483
7894,-0.0596,-0.0103,1.0100,-0.0289,0.1347,-0.1094
7904,-0.0576,-0.0132,1.0107,-0.0136,0.2263,-0.0636
7914,-0.0615,-0.0112,1.0217,0.0322,0.1957,-0.1247
7924,-0.0691,-0.0117,1.0146,-0.0747,0.1347,0.0127
7934,-0.0623,-0.0110,1.0127,-0.0289,0.0278,0.0433
7944,-0.0649,-0.0100,1.0222,-0.0136,-0.0638,-0.0483
7954,-0.0598,-0.0173,1.0125,0.0322,-0.1249,-0.0178
7964,-0.0591,-0.0100,1.0085,0.0475,-0.0485,0.0585
7974,-0.0515,-0.0112,1.0103,0.0322,-0.1707,0.0891
7984,-0.0505,-0.0161,1.0095,0.0627,-0.1402,0.0738
7994,-0.0486,-0.0112,1.0046,0.0475,-0.0485,-0.0178
8004,-0.0503,-0.0151,1.0195,0.0169,-0.0485,-0.0025
8014,-0.0498,-0.0129,1.0164,-0.0289,-0.0027,-0.0331
8024,-0.0554,-0.0134,1.0190,-0.0289,0.0431,-0.0483
8034,-0.0601,-0.0098,1.0146,-0.0289,0.0431,-0.0636
8044,-0.0537,-0.0100,1.0144,0.0322,0.0889,-0.0941
8054,-0.0605,-0.0107,1.0154,-0.0289,0.1194,-0.0178
8064,-0.0579,-0.0078,1.0142,0.0627,0.0736,-0.0025
8074,-0.0605,-0.0112,1.0127,0.0017,0.0125,0.0585
8084,-0.0603,-0.0122,1.0193,0.0322,0.0278,-0.0483
8094,-0.0596,-0.0117,1.0151,-0.0747,0.0125,-0.0178
8104,-0.0566,-0.0095,1.0164,-0.0136,-0.0638,0.0280
8114,-0.0676,-0.0083,1.0103,-0.0136,-0.0180,-0.0025
8124,-0.0608,-0.0129,1.0237,-0.0441,-0.0485,-0.0178
8134,-0.0537,-0.0117,1.0144,-0.0899,-0.1249,0.0280
8144,-0.0571,-0.0105,1.0181,-0.0594,-0.1402,-0.0025
8154,-0.0520,-0.0105,1.0142,0.0475,-0.0485,-0.0178
8164,-0.0530,-0.0103,1.0107,-0.0441,-0.0638,0.0433
8174,-0.0554,-0.0081,1.0154,-0.0747,-0.0027,-0.0178
8184,-0.0532,-0.0127,1.0188,-0.0289,-0.0333,0.0433
8194,-0.0535,-0.0129,1.0166,-0.0441,0.0583,-0.0178
8204,-0.0535,-0.0120,1.0154,-0.0289,0.0583,-0.0483
8214,-0.0574,-0.0115,1.0095,-0.0289,0.0736,-0.0636
8224,-0.0571,-0.0107,1.0183,0.0017,-0.0333,0.0280
8234,-0.0613,-0.0103,1.0173,0.0475,0.0583,-0.0178
8244,-0.0569,-0.0105,1.0203,0.0475,-0.0180,0.0280
8254,-0.0608,-0.0127,1.0146,0.0933,-0.0333,0.0585
8264,-0.0603,-0.0098,1.0134,0.0780,-0.0638,0.0738
8274,-0.0571,-0.0056,1.0151,0.0322,-0.0333,-0.0025
8284,-0.0549,-0.0059,1.0132,0.0169,-0.1402,-0.0636
8294,-0.0547,-0.0107,1.0037,-0.0441,-0.0944,-0.0178
8304,-0.0540,-0.0095,1.0173,-0.0441,-0.0485,-0.0025
8314,-0.0542,-0.0093,1.0146,-0.0747,-0.0333,0.0127
8324,-0.0547,-0.0120,1.0146,-0.1052,0.0278,0.0127
8334,-0.0564,-0.0105,1.0137,-0.0747,0.0431,-0.0483
8344,-0.0583,-0.0127,1.0134,-0.0594,-0.0485,-0.0178
8354,-0.0532,-0.0127,1.0146,-0.0441,-0.0180,-0.0178
8364,-0.0603,-0.0117,1.0159,-0.0136,-0.0485,-0.0178
8374,-0.0569,-0.0139,1.0161,0.0627,-0.0485,-0.0483
8384,-0.0603,-0.0137,1.0132,0.0169,0.0889,-0.0178
8394,-0.0581,-0.0151,1.0120,0.0475,0.0431,0.0280
8404,-0.0579,-0.0105,1.0156,0.1085,-0.0333,0.0280
8414,-0.0537,-0.0066,1.0129,0.0322,-0.0485,0.0585
8424,-0.0562,-0.0115,1.0181,-0.0441,-0.0333,0.0280
8434,-0.0540,-0.0095,1.0110,0.0169,-0.0485,0.0738
8444,-0.0562,-0.0100,1.0081,-0.0136,0.0125,0.0433
8454,-0.0586,-0.0088,1.0166,0.0169,0.0889,-0.0331
8464,-0.0564,-0.0120,1.0120,0.0475,0.1041,-0.0331
8474,-0.0603,-0.0112,1.0186,-0.0136,0.0278,-0.0636
8484,-0.0596,-0.0107,1.0129,-0.0289,0.0583,-0.0178
8494,-0.0559,-0.0105,1.0125,-0.0441,0.0736,0.0433
8504,-0.0564,-0.0144,1.0129,-0.0289,0.0431,-0.0483
8514,-0.0564,-0.0103,1.0144,-0.0594,0.0125,-0.0483
8524,-0.0591,-0.0144,1.0188,-0.0899,-0.0180,-0.1094
8534,-0.0581,-0.0125,1.0117,-0.0441,-0.0027,-0.0636
8544,-0.0566,-0.0093,1.0159,0.0169,-0.0791,-0.0636
8554,-0.0562,-0.0107,1.0151,0.0169,-0.0180,0.0127
8564,-0.0540,-0.0120,1.0127,-0.0747,-0.0180,0.0585
8574,-0.0559,-0.0122,1.0168,-0.0747,-0.0180,0.0585
8584,-0.0535,-0.0115,1.0181,-0.0289,0.0889,0.0127
8594,-0.0535,-0.0122,1.0129,0.0169,-0.0333,-0.0025
8604,-0.0554,-0.0120,1.0125,-0.0136,-0.0027,-0.0025
8614,-0.0583,-0.0066,1.0156,0.0322,-0.0333,-0.0483
8624,-0.0596,-0.0103,1.0103,-0.0289,-0.0027,-0.1399
8634,-0.0632,-0.0110,1.0137,-0.0747,-0.0180,-0.0331
8644,-0.0574,-0.0110,1.0156,-0.0747,-0.0333,0.0585
8654,-0.0588,-0.0149,1.0139,-0.0747,-0.0791,0.0585
8664,-0.0564,-0.0115,1.0166,0.0017,-0.0791,-0.0178
8674,-0.0554,-0.0078,1.0132,-0.0441,-0.0944,-0.0178
8684,-0.0530,-0.0088,1.0190,0.0017,-0.0485,-0.0025
8694,-0.0547,-0.0105,1.0088,-0.0289,-0.0638,0.0127
8704,-0.0476,-0.0129,1.0159,0.0322,-0.0638,0.0280
8714,-0.0537,-0.0093,1.0149,0.0017,-0.0180,-0.0178
8724,-0.0525,-0.0134,1.0103,-0.0594,0.0278,0.0127
8734,-0.0564,-0.0132,1.0200,-0.0441,-0.0180,-0.0789
8744,-0.0596,-0.0129,1.0178,-0.0441,0.0583,-0.1094
8754,-0.0603,-0.0107,1.0139,-0.0289,0.0431,-0.0178
8764,-0.0593,-0.0122,1.0088,-0.0136,0.0889,-0.0025
8774,-0.0598,-0.0137,1.0154,-0.0136,-0.0027,0.0127
8784,-0.0625,-0.0144,1.0176,0.0475,-0.0638,0.0433
8794,-0.0625,-0.0127,1.0203,0.0169,-0.0333,-0.0025
8804,-0.0552,-0.0110,1.0142,0.1085,-0.0180,0.0127
8814,-0.0522,-0.0100,1.0142,0.1085,-0.1249,0.0585
8824,-0.0505,-0.0088,1.0142,0.0322,-0.0485,-0.0025
8834,-0.0547,-0.0103,1.0103,0.0017,-0.0333,-0.0636
8844,-0.0544,-0.0120,1.0137,-0.0289,-0.0638,-0.0636
8854,-0.0544,-0.0132,1.0110,0.0017,-0.0485,-0.0178
8864,-0.0566,-0.0095,1.0105,-0.0136,0.0278,-0.0178
8874,-0.0576,-0.0127,1.0166,-0.0747,0.0431,-0.0331
8884,-0.0598,-0.0127,1.0112,-0.0136,-0.0180,-0.0789
8894,-0.0598,-0.0107,1.0151,-0.0136,-0.0180,-0.0331
8904,-0.0618,-0.0112,1.0198,-0.0289,0.0125,0.0585
8914,-0.0588,-0.0134,1.0139,0.0322,-0.0333,-0.0483
8924,-0.0615,-0.0107,1.0156,0.0322,-0.0485,-0.0636
8934,-0.0557,-0.0117,1.0120,0.0169,-0.0333,-0.0178
8944,-0.0552,-0.0115,1.0093,0.0475,-0.0638,0.0127
8954,-0.0527,-0.0095,1.0132,0.0475,-0.0333,-0.0025
8964,-0.0549,-0.0076,1.0107,0.0169,-0.0027,-0.0331
8974,-0.0498,-0.0115,1.0117,0.0322,-0.0791,-0.0025
8984,-0.0537,-0.0122,1.0115,0.0475,-0.0180,-0.0178
8994,-0.0527,-0.0125,1.0154,0.0017,0.0278,-0.0483
9004,-0.0571,-0.0103,1.0132,-0.0594,0.0431,0.0127
9014,-0.0586,-0.0095,1.0146,0.0017,0.0278,-0.0178
9024,-0.0601,-0.0105,1.0125,-0.0136,-0.0027,-0.0331
9034,-0.0598,-0.0107,1.0186,0.0017,0.0278,0.0127
9044,-0.0598,-0.0103,1.0105,0.0017,0.0583,0.0280
9054,-0.0588,-0.0122,1.0110,0.0475,0.0431,0.0433
9064,-0.0542,-0.0115,1.0190,-0.0747,0.1194,-0.0331
9074,-0.0569,-0.0107,1.0154,-0.0441,0.0736,0.0280
9084,-0.0522,-0.0132,1.0181,-0.0594,0.0583,0.0127
9094,-0.0510,-0.0149,1.0161,-0.0594,-0.0180,0.0127
9104,-0.0535,-0.0105,1.0100,-0.0289,0.0278,-0.0331
9114,-0.0518,-0.0117,1.0149,-0.0441,0.0278,-0.0941
9124,-0.0557,-0.0139,1.0188,-0.0594,0.0278,-0.0636
9134,-0.0562,-0.0168,1.0115,-0.0289,-0.0027,-0.0331
9144,-0.0557,-0.0085,1.0154,0.0322,-0.0180,-0.0025
9154,-0.0576,-0.0088,1.0168,0.0627,-0.0027,0.0280
9164,-0.0566,-0.0095,1.0168,0.0933,-0.0180,-0.0636
9174,-0.0593,-0.0056,1.0159,0.0322,-0.0333,-0.0941
9184,-0.0540,-0.0107,1.0105,-0.0289,0.0125,-0.0941
9194,-0.0652,-0.0103,1.0154,-0.0441,-0.0180,-0.0178
9204,-0.0574,-0.0081,1.0156,0.0169,0.0278,0.0433
9214,-0.0552,-0.0093,1.0161,0.0017,0.0125,0.0738
9224,-0.0552,-0.0103,1.0203,-0.0899,0.0278,0.0280
9234,-0.0518,-0.0125,1.0125,-0.0136,-0.0333,-0.0178
9244,-0.0513,-0.0115,1.0085,-0.0136,-0.1096,-0.0025
9254,-0.0532,-0.0105,1.0188,-0.0289,0.0125,-0.0636
9264,-0.0559,-0.0137,1.0100,-0.0747,0.0278,-0.1247
9274,-0.0559,-0.0154,1.0149,-0.0441,-0.0027,-0.0941
9284,-0.0669,-0.0142,1.0200,0.0169,-0.0180,-0.1094
9294,-0.0618,-0.0110,1.0193,0.0017,-0.0180,-0.1094
9304,-0.0608,-0.0127,1.0166,0.1544,-0.0944,-0.0025
9314,-0.0552,-0.0110,1.0168,0.0780,-0.0791,0.0433
9324,-0.0500,-0.0110,1.0193,0.0017,-0.0027,0.0433
9334,-0.0508,-0.0063,1.0088,0.0169,-0.0638,-0.0025
9344,-0.0510,-0.0110,1.0095,0.0017,-0.0944,-0.0636
9354,-0.0549,-0.0093,1.0083,0.0017,-0.0485,-0.0331
9364,-0.0559,-0.0137,1.0173,-0.0289,0.0889,-0.0331
9374,-0.0527,-0.0134,1.0107,-0.0136,0.1041,0.0280
9384,-0.0559,-0.0166,1.0132,-0.0441,0.0583,-0.0636
9394,-0.0591,-0.0105,1.0120,0.0017,0.0736,-0.0483
9404,-0.0610,-0.0129,1.0166,-0.0594,0.1041,-0.0025
9414,-0.0649,-0.0125,1.0098,0.0169,0.0583,-0.0025
9424,-0.0637,-0.0125,1.0088,0.0933,-0.0333,0.0280
9434,-0.0664,-0.0110,1.0156,0.0475,-0.0027,-0.0331
9444,-0.0564,-0.0107,1.0210,0.0475,-0.0485,0.0127
9454,-0.0579,-0.0063,1.0125,0.0322,-0.0180,0.0280
9464,-0.0503,-0.0076,1.0100,-0.0899,-0.0333,0.1044
9474,-0.0508,-0.0061,1.0120,-0.0594,-0.0791,0.0433
9484,-0.0510,-0.0105,1.0122,-0.1052,-0.0485,0.0280
9494,-0.0527,-0.0100,1.0110,-0.0594,-0.0638,-0.0789
9504,-0.0540,-0.0127,1.0149,-0.0136,-0.0180,-0.0636
9514,-0.0583,-0.0149,1.0210,-0.0899,-0.0333,-0.0483
9524,-0.0562,-0.0112,1.0107,-0.0136,0.0125,-0.0178
9534,-0.0564,-0.0120,1.0164,0.0017,0.0278,-0.0025
9544,-0.0583,-0.0134,1.0186,0.0017,0.0431,0.0280
9554,-0.0552,-0.0120,1.0125,0.0169,0.0736,0.0585
9564,-0.0571,-0.0122,1.0144,0.0475,-0.0638,0.1196
9574,-0.0547,-0.0107,1.0071,0.0322,-0.0180,0.0280
9584,-0.0586,-0.0146,1.0154,0.0169,0.0431,0.0280
9594,-0.0583,-0.0066,1.0120,0.0169,0.0431,-0.0025
9604,-0.0581,-0.0093,1.0159,0.0627,0.0736,-0.0636
9614,-0.0593,-0.0090,1.0129,0.0322,-0.0180,-0.0789
9624,-0.0603,-0.0107,1.0073,0.0627,0.0125,-0.0331
9634,-0.0552,-0.0066,1.0186,0.0169,0.0125,0.0585
9644,-0.0603,-0.0076,1.0149,0.0169,-0.0180,-0.0483
9654,-0.0552,-0.0090,1.0161,0.0169,-0.0638,-0.0025
9664,-0.0581,-0.0122,1.0110,-0.0594,-0.0791,-0.0483
9674,-0.0520,-0.0090,1.0154,-0.0289,-0.0944,-0.0331
9684,-0.0569,-0.0125,1.0098,-0.0289,-0.0944,-0.0178
9694,-0.0576,-0.0139,1.0146,-0.0594,-0.0180,0.1044
9704,-0.0513,-0.0159,1.0093,-0.0136,0.0125,0.0127
9714,-0.0579,-0.0181,1.0229,-0.0441,-0.0638,-0.0483
9724,-0.0535,-0.0117,1.0161,0.0475,-0.0333,-0.0636
9734,-0.0559,-0.0120,1.0198,0.0322,0.1041,0.0127
9744,-0.0562,-0.0132,1.0066,0.0169,0.0583,-0.0178
9754,-0.0579,-0.0125,1.0237,0.0475,0.0431,-0.0331
9764,-0.0557,-0.0115,1.0100,0.0169,-0.0485,-0.0025
9774,-0.0569,-0.0105,1.0127,0.0627,-0.0333,-0.1094
9784,-0.0593,-0.0098,1.0110,0.0017,-0.0027,-0.0178
9794,-0.0579,-0.0083,1.0073,0.0322,0.0278,-0.0178
9804,-0.0581,-0.0071,1.0129,0.0017,-0.0638,-0.0025
9814,-0.0593,-0.0063,1.0098,0.0627,0.0431,0.0127
9824,-0.0525,-0.0127,1.0127,0.0017,-0.0791,0.0585
9834,-0.0581,-0.0120,1.0142,-0.0594,-0.0333,0.0433
9844,-0.0557,-0.0134,1.0176,-0.1205,-0.0180,0.0280
9854,-0.0544,-0.0103,1.0188,-0.1205,-0.0485,-0.0025
9864,-0.0537,-0.0105,1.0156,-0.0747,-0.0027,-0.0483
9874,-0.0527,-0.0098,1.0105,-0.0747,0.0125,-0.0178
9884,-0.0547,-0.0176,1.0159,-0.0136,-0.0485,-0.0483
9894,-0.0559,-0.0132,1.0117,-0.0899,-0.0180,-0.0483
9904,-0.0593,-0.0134,1.0190,-0.0289,0.0278,-0.1399
9914,-0.0610,-0.0173,1.0193,0.0017,0.0125,-0.0789
9924,-0.0583,-0.0078,1.0120,0.0017,-0.0791,-0.0331
9934,-0.0588,-0.0059,1.0168,0.0475,0.0278,-0.0025
9944,-0.0603,-0.0083,1.0142,0.0322,0.0125,-0.0025
9954,-0.0540,-0.0107,1.0205,0.0169,-0.0333,-0.0025
9964,-0.0513,-0.0078,1.0134,-0.0289,-0.1096,0.0433
9974,-0.0547,-0.0100,1.0120,-0.0441,-0.0485,-0.1094
9984,-0.0537,-0.0122,1.0105,-0.0136,-0.0791,-0.0331
9994,-0.0518,-0.0139,1.0125,0.0017,0.0125,-0.0025
10004,-0.0505,-0.0117,1.0220,-0.0899,0.0278,-0.0025
10014,-0.0562,-0.0125,1.0181,-0.0136,-0.0027,-0.0636
10024,-0.0571,-0.0122,1.0166,-0.0441,-0.0180,-0.0483
10034,-0.0586,-0.0129,1.0105,-0.0441,-0.0180,-0.0331
10044,-0.0603,-0.0134,1.0186,-0.0289,-0.0638,-0.0178
10054,-0.0576,-0.0137,1.0212,0.0627,-0.0485,-0.0178
10064,-0.0542,-0.0115,1.0105,0.0627,-0.0027,-0.0331
10074,-0.0537,-0.0103,1.0159,0.1391,-0.0638,0.0127
10084,-0.0537,-0.0132,1.0139,0.0475,-0.0485,-0.0178
10094,-0.0591,-0.0073,1.0100,-0.0594,0.0125,-0.0483
10104,-0.0569,-0.0085,1.0142,-0.0594,-0.0027,-0.0483
10114,-0.0554,-0.0090,1.0168,0.0017,-0.0027,-0.0178
10124,-0.0571,-0.0071,1.0176,0.0169,0.0278,-0.0789
10134,-0.0601,-0.0093,1.0225,0.0169,-0.0027,-0.0483
10144,-0.0598,-0.0110,1.0168,-0.0136,0.0583,-0.0789
10154,-0.0583,-0.0083,1.0176,-0.0594,-0.0333,-0.0331
10164,-0.0586,-0.0085,1.0146,-0.0441,0.0278,0.0280
10174,-0.0542,-0.0127,1.0125,-0.0441,-0.0944,-0.0178
10184,-0.0525,-0.0115,1.0173,-0.0289,-0.0638,-0.0178
10194,-0.0540,-0.0127,1.0142,0.0627,0.0736,-0.0789
10204,-0.0574,-0.0142,1.0093,0.0017,0.0278,-0.0636
10214,-0.0566,-0.0095,1.0105,0.0017,0.0583,-0.1094
10224,-0.0579,-0.0112,1.0159,0.0322,0.0583,0.0585
10234,-0.0566,-0.0127,1.0090,0.0627,0.0431,-0.0636
10244,-0.0564,-0.0112,1.0164,0.0017,0.0431,-0.1094
10254,-0.0549,-0.0095,1.0137,0.1085,0.0125,-0.0789
10264,-0.0554,-0.0120,1.0051,0.0475,0.0431,-0.0178
10274,-0.0566,-0.0117,1.0122,0.0017,-0.0027,-0.0483
10284,-0.0576,-0.0117,1.0186,-0.0594,-0.0333,0.0433
10294,-0.0566,-0.0127,1.0161,-0.0136,0.0278,-0.0789
10304,-0.0601,-0.0117,1.0125,0.0017,0.0583,0.0585
10314,-0.0579,-0.0076,1.0103,-0.0594,0.0431,-0.0025
10324,-0.0586,-0.0127,1.0178,0.0169,-0.0333,-0.0025
10334,-0.0581,-0.0144,1.0181,0.0017,-0.0333,0.0127
10344,-0.0549,-0.0129,1.0149,-0.0441,-0.0791,0.0127
10354,-0.0549,-0.0105,1.0164,-0.0289,-0.0944,-0.0025
10364,-0.0576,-0.0110,1.0068,-0.0441,-0.1249,-0.0331
10374,-0.0557,-0.0115,1.0071,0.0017,-0.0791,0.0280
10384,-0.0588,-0.0139,1.0154,-0.0289,-0.0333,0.0127
10394,-0.0566,-0.0112,1.0132,-0.0289,-0.0333,-0.0178
10404,-0.0552,-0.0107,1.0176,0.0169,-0.0180,-0.0789
10414,-0.0542,-0.0095,1.0122,-0.0289,0.0125,-0.0025
10424,-0.0535,-0.0117,1.0176,0.0322,0.0431,-0.0331
10434,-0.0574,-0.0100,1.0159,0.0017,0.0125,0.0280
10444,-0.0564,-0.0103,1.0105,-0.0289,0.0431,-0.0941
10454,-0.0544,-0.0120,1.0217,0.0169,0.0583,-0.1094
10464,-0.0586,-0.0112,1.0142,-0.0136,0.0278,-0.0941
10474,-0.0583,-0.0090,1.0117,-0.0136,-0.0485,-0.0941
10484,-0.0630,-0.0115,1.0151,-0.0289,-0.0485,-0.0636
10494,-0.0562,-0.0105,1.0144,-0.0289,-0.0333,-0.0483
10504,-0.0610,-0.0098,1.0190,-0.0441,-0.0333,-0.0636
10514,-0.0557,-0.0085,1.0164,-0.0136,-0.0180,0.0585
10524,-0.0549,-0.0122,1.0076,-0.0441,-0.0485,0.0127
10534,-0.0522,-0.0134,1.0122,0.0169,-0.0791,-0.0178
10544,-0.0542,-0.0146,1.0103,0.0017,-0.0791,-0.0789
10554,-0.0540,-0.0117,1.0156,-0.0594,-0.0180,-0.0941
10564,-0.0557,-0.0105,1.0166,-0.0594,0.0125,-0.0636
10574,-0.0581,-0.0129,1.0159,0.0322,0.0125,-0.1094
10584,-0.0593,-0.0098,1.0129,0.0169,0.0125,-0.0331
10594,-0.0591,-0.0120,1.0134,0.0017,-0.0791,-0.0025
10604,-0.0632,-0.0117,1.0127,0.0933,-0.0027,0.0433
10614,-0.0610,-0.0105,1.0127,0.0322,-0.0180,0.0127
10624,-0.0571,-0.0107,1.0110,0.0169,-0.1096,-0.0178
10634,-0.0535,-0.0083,1.0159,-0.0441,-0.0638,-0.0483
10644,-0.0620,-0.0105,1.0139,-0.0136,0.0278,0.0127
10654,-0.0613,-0.0105,1.0129,-0.0594,-0.0485,-0.0331
10664,-0.0601,-0.0098,1.0105,0.0475,-0.0638,-0.0636
10674,-0.0618,-0.0090,1.0088,-0.0136,-0.0485,0.0280
10684,-0.0593,-0.0139,1.0144,-0.0747,-0.0638,-0.0025
10694,-0.0532,-0.0120,1.0078,-0.0136,-0.1096,0.0891
10704,-0.0527,-0.0103,1.0129,-0.0136,-0.0944,0.0280
10714,-0.0483,-0.0139,1.0171,-0.0594,-0.0638,0.0738
10724,-0.0518,-0.0093,1.0129,0.0322,-0.0027,0.0280
10734,-0.0532,-0.0137,1.0066,-0.0441,0.0125,0.0127
10744,-0.0549,-0.0146,1.0166,0.0017,-0.0027,0.0280
10754,-0.0547,-0.0125,1.0178,0.0017,-0.0333,-0.0636
10764,-0.0637,-0.0122,1.0161,0.0169,0.1499,-0.1552
10774,-0.0593,-0.0120,1.0144,0.0933,0.0431,-0.0636
10784,-0.0627,-0.0112,1.0078,0.0780,-0.0333,-0.0025
10794,-0.0635,-0.0085,1.0176,0.0322,0.0278,0.0280
10804,-0.0603,-0.0081,1.0149,0.0169,-0.1096,0.0433
10814,-0.0537,-0.0115,1.0132,0.0322,-0.0333,0.0433
10824,-0.0537,-0.0078,1.0142,-0.0289,-0.1249,0.0738
10834,-0.0503,-0.0085,1.0110,-0.0747,-0.1096,0.0433
10844,-0.0491,-0.0103,1.0139,0.0322,-0.1249,-0.0483
10854,-0.0525,-0.0132,1.0225,0.0017,-0.0180,-0.0331
10864,-0.0547,-0.0127,1.0144,0.0322,-0.0027,-0.0789
10874,-0.0559,-0.0149,1.0137,-0.0289,-0.0180,-0.0331
10884,-0.0618,-0.0129,1.0225,-0.0289,-0.0027,0.0585
10894,-0.0608,-0.0122,1.0122,-0.0136,0.0278,-0.0025
10904,-0.0571,-0.0127,1.0215,0.0322,0.0736,-0.0331
10914,-0.0549,-0.0115,1.0154,0.0322,0.1041,0.0127
10924,-0.0562,-0.0125,1.0156,0.0933,0.0736,0.0127
10934,-0.0588,-0.0156,1.0073,0.0475,0.1194,-0.0178
10944,-0.0532,-0.0085,1.0117,0.0780,0.0278,-0.0331
10954,-0.0562,-0.0098,1.0144,0.0169,0.0278,0.0127
10964,-0.0562,-0.0149,1.0149,-0.0441,-0.0638,-0.0025
10974,-0.0591,-0.0071,1.0195,-0.0136,-0.0180,-0.0789
10984,-0.0618,-0.0146,1.0181,0.0475,-0.0333,-0.0483
10994,-0.0598,-0.0076,1.0120,-0.0136,-0.0638,0.0280
11004,-0.0591,-0.0056,1.0173,-0.0289,0.0125,-0.0025
11014,-0.0591,-0.0076,1.0146,-0.0594,-0.0027,0.0280
11024,-0.0569,-0.0103,1.0183,-0.0899,-0.0180,0.0127
11034,-0.0566,-0.0105,1.0181,0.0017,-0.1249,-0.0178
11044,-0.0564,-0.0112,1.0168,0.0017,-0.0485,-0.0025
11054,-0.0559,-0.0095,1.0115,-0.0441,-0.0180,-0.0636
11064,-0.0574,-0.0142,1.0117,-0.0594,-0.1249,-0.0331
11074,-0.0522,-0.0156,1.0149,-0.0136,-0.0485,-0.0025
11084,-0.0579,-0.0115,1.0173,-0.0594,-0.0180,-0.0789
11094,-0.0562,-0.0146,1.0134,0.0627,-0.0485,-0.0331
11104,-0.0564,-0.0117,1.0129,0.0475,-0.1096,-0.0483
11114,-0.0574,-0.0103,1.0103,-0.0136,0.0431,-0.0636
11124,-0.0588,-0.0105,1.0117,-0.0289,0.0889,-0.0025
11134,-0.0544,-0.0122,1.0061,0.0627,0.0431,0.0280
11144,-0.0581,-0.0139,1.0164,0.0627,0.0278,0.0433
11154,-0.0544,-0.0076,1.0127,0.0169,0.0278,-0.0636
11164,-0.0569,-0.0073,1.0203,-0.0747,-0.0333,0.0738
11174,-0.0591,-0.0093,1.0159,-0.0594,-0.0485,-0.0483
11184,-0.0557,-0.0100,1.0173,-0.0289,0.0736,-0.0483
11194,-0.0583,-0.0117,1.0095,0.0169,0.0278,-0.0178
11204,-0.0544,-0.0127,1.0151,0.0322,-0.0333,-0.0483
11214,-0.0566,-0.0103,1.0149,-0.0289,0.0889,-0.0025
11224,-0.0552,-0.0088,1.0149,0.0017,-0.0333,0.0127
11234,-0.0537,-0.0112,1.0156,0.0017,-0.0485,0.0127
11244,-0.0571,-0.0115,1.0095,0.0017,-0.0027,-0.0483
11254,-0.0554,-0.0127,1.0173,0.0169,-0.0333,-0.0331
11264,-0.0549,-0.0110,1.0142,0.0780,-0.0027,-0.0789
11274,-0.0571,-0.0103,1.0178,0.0475,-0.0027,-0.0636
11284,-0.0583,-0.0129,1.0142,-0.0441,-0.0638,-0.0025
11294,-0.0581,-0.0110,1.0244,-0.0747,-0.0485,-0.0789
11304,-0.0576,-0.0093,1.0149,-0.0441,-0.0180,-0.0331
11314,-0.0613,-0.0117,1.0151,0.1391,0.0125,-0.0025
11324,-0.0583,-0.0125,1.0112,0.0322,-0.0638,0.0127
11334,-0.0547,-0.0083,1.0146,-0.0136,-0.0791,0.0127
11344,-0.0566,-0.0093,1.0120,0.0322,-0.0638,-0.0178
11354,-0.0586,-0.0112,1.0205,0.0017,-0.0333,0.0127
11364,-0.0549,-0.0112,1.0203,0.0169,-0.0333,0.0280
11374,-0.0547,-0.0132,1.0137,0.0017,-0.0027,-0.0025
11384,-0.0564,-0.0110,1.0127,-0.0136,0.0278,0.0433
11394,-0.0603,-0.0095,1.0164,-0.0899,-0.0485,-0.0025
11404,-0.0566,-0.0151,1.0168,-0.0899,-0.0027,0.0127
11414,-0.0576,-0.0122,1.0088,-0.0747,0.0583,-0.0636
11424,-0.0559,-0.0117,1.0142,-0.0594,0.0278,-0.0331
11434,-0.0574,-0.0122,1.0105,0.0017,-0.0485,-0.0331
11444,-0.0547,-0.0144,1.0120,-0.0899,-0.0180,-0.0483
11454,-0.0540,-0.0134,1.0173,-0.0289,-0.0180,-0.0025
11464,-0.0583,-0.0110,1.0120,0.0169,-0.0027,-0.0636
11474,-0.0562,-0.0085,1.0107,-0.0136,0.0278,-0.0178
11484,-0.0552,-0.0120,1.0227,-0.0136,-0.0027,0.0127
11494,-0.0583,-0.0076,1.0215,0.0169,-0.0027,0.0280
11504,-0.0552,-0.0129,1.0205,0.0475,-0.0485,-0.0331
11514,-0.0554,-0.0132,1.0178,0.0169,-0.0944,-0.1094
11524,-0.0552,-0.0100,1.0129,0.0169,-0.0485,0.0127
11534,-0.0522,-0.0151,1.0212,-0.0136,0.0125,-0.0789
11544,-0.0574,-0.0120,1.0183,0.0169,0.0278,-0.0941
11554,-0.0566,-0.0122,1.0183,0.0017,-0.0027,-0.0483
11564,-0.0544,-0.0120,1.0088,0.0322,-0.0638,-0.0789
11574,-0.0554,-0.0103,1.0090,0.0627,0.0125,-0.0178
11584,-0.0583,-0.0107,1.0234,0.0475,0.0125,-0.0331
11594,-0.0554,-0.0117,1.0139,0.0169,-0.0485,-0.0331
11604,-0.0593,-0.0115,1.0093,0.0475,-0.0180,0.0127
11614,-0.0557,-0.0112,1.0186,0.0169,-0.0333,-0.0331
11624,-0.0537,-0.0129,1.0178,-0.0289,-0.0485,-0.0178
11634,-0.0510,-0.0137,1.0193,0.0475,0.0431,0.0127
11644,-0.0540,-0.0164,1.0093,0.0475,0.0278,0.0433
11654,-0.0559,-0.0134,1.0195,0.0169,0.1041,0.0127
11664,-0.0498,-0.0127,1.0095,-0.0441,0.1347,0.0280
11674,-0.0520,-0.0146,1.0173,0.0322,0.1499,0.0891
11684,-0.0549,-0.0156,1.0139,0.0475,0.0583,-0.0483
11694,-0.0601,-0.0103,1.0139,0.0475,0.1347,-0.1094
11704,-0.0635,-0.0122,1.0129,0.0169,0.0278,-0.0331
11714,-0.0657,-0.0068,1.0132,0.0627,0.1194,-0.1094
11724,-0.0652,-0.0120,1.0054,0.0780,0.0583,-0.0025
11734,-0.0647,-0.0061,1.0127,0.1085,-0.0333,0.0433
11744,-0.0642,-0.0051,1.0112,0.0322,-0.1554,0.0280
11754,-0.0632,-0.0068,1.0190,-0.0747,-0.0944,-0.0331
11764,-0.0549,-0.0056,1.0071,-0.0441,-0.1707,0.0433
11774,-0.0542,-0.0100,1.0166,-0.0289,-0.2165,-0.0025
11784,-0.0520,-0.0066,1.0137,-0.0899,-0.2470,0.0585
11794,-0.0532,-0.0115,1.0127,-0.1357,-0.1554,-0.0178
11804,-0.0469,-0.0125,1.0063,-0.0594,-0.1096,-0.0636
11814,-0.0518,-0.0107,1.0151,-0.0441,-0.0638,-0.0331
11824,-0.0508,-0.0159,1.0166,-0.0747,0.0431,0.0585
11834,-0.0552,-0.0100,1.0149,-0.1052,-0.0180,0.0433
11844,-0.0532,-0.0205,1.0195,-0.0136,-0.0180,-0.0178
11854,-0.0552,-0.0181,1.0183,0.0627,0.0736,0.0280
11864,-0.0544,-0.0132,1.0129,0.0627,0.0736,0.0127
11874,-0.0581,-0.0154,1.0161,0.0322,0.1805,0.0127
11884,-0.0583,-0.0129,1.0203,0.0475,0.1041,-0.0789
11894,-0.0613,-0.0142,1.0193,0.1085,0.0278,-0.0178
11904,-0.0605,-0.0093,1.0151,0.0475,0.0125,-0.0483
11914,-0.0591,-0.0095,1.0090,0.1085,-0.0027,-0.0331
11924,-0.0608,-0.0032,1.0112,0.0627,0.0125,-0.0483
11934,-0.0562,-0.0112,1.0190,0.0475,-0.0027,-0.0331
11944,-0.0581,-0.0081,1.0103,-0.0289,-0.0485,0.0127
11954,-0.0579,-0.0059,1.0125,0.0017,-0.0638,0.0738
11964,-0.0547,-0.0117,1.0120,-0.0136,-0.0333,-0.0025
11974,-0.0618,-0.0110,1.0186,0.0017,-0.1096,0.0280
11984,-0.0564,-0.0161,1.0149,-0.0594,0.0125,0.0280
11994,-0.0544,-0.0154,1.0078,-0.0899,-0.0180,-0.0331
12004,-0.0596,-0.0151,1.0142,-0.0441,-0.0944,-0.0025
12014,-0.0549,-0.0100,1.0178,-0.0289,0.0125,-0.0178
12024,-0.0549,-0.0132,1.0129,-0.0441,0.0125,0.0127
12034,-0.0583,-0.0164,1.0161,-0.0594,-0.0180,-0.0025
12044,-0.0559,-0.0115,1.0198,-0.0441,0.0125,-0.0636
12054,-0.0608,-0.0110,1.0132,-0.0136,-0.0180,-0.0331
12064,-0.0566,-0.0132,1.0105,0.0322,0.0583,-0.1247
12074,-0.0591,-0.0103,1.0146,-0.0136,0.0583,-0.0483
12084,-0.0605,-0.0088,1.0112,-0.0136,-0.0638,-0.0025
12094,-0.0579,-0.0083,1.0139,0.0322,-0.0485,-0.0331
12104,-0.0574,-0.0095,1.0215,-0.0594,-0.0485,-0.0025
12114,-0.0525,-0.0083,1.0120,-0.0594,-0.1249,0.0280
12124,-0.0562,-0.0110,1.0198,-0.0594,-0.1554,0.0280
12134,-0.0522,-0.0090,1.0176,-0.0747,-0.1554,0.0127
12144,-0.0569,-0.0129,1.0129,-0.0594,-0.0791,-0.0025
12154,-0.0544,-0.0171,1.0198,-0.1357,-0.0791,-0.0331
12164,-0.0527,-0.0149,1.0081,-0.0136,-0.0333,-0.0789
12174,-0.0581,-0.0139,1.0144,-0.0747,0.0278,0.0127
12184,-0.0532,-0.0166,1.0146,-0.1205,0.0278,-0.0331
12194,-0.0557,-0.0134,1.0161,0.0169,-0.0180,-0.0636
12204,-0.0557,-0.0166,1.0159,-0.0289,-0.0333,-0.0025
12214,-0.0579,-0.0134,1.0132,0.0322,-0.0180,0.0127
12224,-0.0569,-0.0112,1.0076,0.0780,-0.0180,-0.0025
12234,-0.0586,-0.0107,1.0149,0.0169,0.0431,-0.1552
12244,-0.0603,-0.0105,1.0088,-0.0136,0.0125,-0.0331
12254,-0.0603,-0.0095,1.0134,0.0017,0.0278,-0.0178
12264,-0.0576,-0.0056,1.0159,-0.0136,-0.0180,-0.1399
12274,-0.0608,-0.0112,1.0173,0.0475,0.0125,-0.0178
12284,-0.0623,-0.0078,1.0144,0.0627,0.0125,0.0891
12294,-0.0552,-0.0095,1.0159,-0.0289,-0.0027,0.0738
12304,-0.0562,-0.0115,1.0168,0.0017,-0.0944,-0.0178
12314,-0.0549,-0.0137,1.0151,-0.0289,-0.0791,-0.0331
12324,-0.0522,-0.0117,1.0088,0.0169,-0.0485,-0.0331
12334,-0.0525,-0.0139,1.0173,-0.0747,0.0125,-0.0178
12344,-0.0544,-0.0112,1.0171,-0.0441,-0.0180,-0.1094
12354,-0.0549,-0.0125,1.0183,0.0322,0.0125,-0.0636
12364,-0.0574,-0.0129,1.0154,0.0475,0.0431,-0.0941
12374,-0.0610,-0.0125,1.0166,0.0933,0.0583,-0.0789
12384,-0.0576,-0.0151,1.0171,0.0169,0.1347,-0.0331
12394,-0.0596,-0.0090,1.0142,0.0933,-0.0180,-0.0331
12404,-0.0576,-0.0093,1.0068,0.0780,-0.0485,0.0433
12414,-0.0571,-0.0088,1.0151,0.1085,-0.0638,-0.0331
12424,-0.0574,-0.0095,1.0085,0.0322,0.0125,-0.0025
12434,-0.0598,-0.0071,1.0222,-0.0136,-0.0027,-0.0941
12444,-0.0596,-0.0066,1.0159,-0.0289,-0.0638,-0.0178
12454,-0.0603,-0.0085,1.0127,-0.0136,-0.0944,0.0433
12464,-0.0564,-0.0098,1.0071,-0.0441,-0.0485,-0.0025
12474,-0.0601,-0.0134,1.0142,-0.0441,-0.0485,-0.0789
12484,-0.0591,-0.0103,1.0188,-0.0441,-0.1096,-0.0178
12494,-0.0596,-0.0129,1.0198,-0.0136,-0.0485,0.0280
12504,-0.0610,-0.0146,1.0134,-0.0289,-0.0180,-0.0025
12514,-0.0581,-0.0132,1.0183,0.0169,0.0278,0.0585
12524,-0.0569,-0.0115,1.0183,0.0017,-0.0638,0.0280
12534,-0.0562,-0.0139,1.0178,0.0627,-0.0027,-0.0636
12544,-0.0562,-0.0098,1.0146,0.1085,-0.0180,-0.0331
12554,-0.0525,-0.0107,1.0139,0.0627,0.0736,0.0585
12564,-0.0500,-0.0112,1.0090,0.0780,0.0736,0.0280
12574,-0.0581,-0.0103,1.0173,0.0017,0.0125,-0.0331
12584,-0.0566,-0.0100,1.0105,0.0475,0.0125,-0.0636
12594,-0.0601,-0.0134,1.0181,-0.0136,0.1041,-0.1399
12604,-0.0623,-0.0115,1.0098,0.0322,0.0278,-0.0483
12614,-0.0615,-0.0112,1.0173,0.0169,-0.0638,0.0127
12624,-0.0571,-0.0129,1.0083,0.0475,0.0431,0.0585
12634,-0.0547,-0.0088,1.0183,0.0017,-0.0333,0.0433
12644,-0.0513,-0.0105,1.0161,-0.0136,-0.0027,0.0433
12654,-0.0522,-0.0093,1.0122,0.0169,0.0583,-0.0025
12664,-0.0542,-0.0095,1.0090,0.0017,-0.0027,-0.0025
12674,-0.0559,-0.0117,1.0066,-0.0289,0.0431,-0.0025
12684,-0.0552,-0.0122,1.0198,-0.0899,0.0125,-0.0636
12694,-0.0576,-0.0168,1.0190,-0.0747,0.0431,-0.0636
12704,-0.0615,-0.0115,1.0193,-0.0899,0.0431,-0.0941
12714,-0.0591,-0.0137,1.0168,-0.0594,0.0278,-0.0941
12724,-0.0598,-0.0127,1.0151,-0.0289,-0.0027,0.0127
12734,-0.0591,-0.0117,1.0190,0.0322,-0.0027,0.0433
12744,-0.0603,-0.0105,1.0166,0.0475,-0.0027,0.0280
12754,-0.0576,-0.0125,1.0120,0.0322,-0.0333,0.0585
12764,-0.0569,-0.0107,1.0105,-0.0747,0.0125,-0.0178
12774,-0.0576,-0.0117,1.0156,-0.0136,-0.0791,-0.0789
12784,-0.0574,-0.0105,1.0107,0.0017,0.0125,-0.0025
12794,-0.0586,-0.0095,1.0093,-0.0289,-0.0638,-0.0178
12804,-0.0564,-0.0107,1.0139,-0.1052,-0.0180,-0.0331
12814,-0.0574,-0.0110,1.0181,-0.0594,-0.0944,0.0433
12824,-0.0564,-0.0129,1.0190,-0.0594,-0.0791,-0.0331
12834,-0.0552,-0.0078,1.0122,-0.0289,-0.0180,-0.0636
12844,-0.0588,-0.0103,1.0161,0.0017,-0.0485,-0.0636
12854,-0.0598,-0.0112,1.0120,-0.0136,-0.0180,-0.0178
12864,-0.0564,-0.0142,1.0137,0.0322,-0.0485,0.0127
12874,-0.0581,-0.0083,1.0120,0.0933,-0.0485,0.0738
12884,-0.0569,-0.0139,1.0232,0.0322,-0.0027,-0.0025
12894,-0.0559,-0.0115,1.0115,0.0322,0.0278,-0.0636
12904,-0.0571,-0.0125,1.0161,0.0169,-0.0027,-0.1705
12914,-0.0559,-0.0112,1.0217,0.0017,-0.0485,-0.0331
12924,-0.0574,-0.0110,1.0144,-0.0441,-0.0027,0.0280
12934,-0.0610,-0.0115,1.0164,0.0017,0.0583,-0.0178
12944,-0.0598,-0.0090,1.0103,0.0322,0.0431,0.0433
12954,-0.0586,-0.0076,1.0134,-0.0441,-0.0638,0.0127
12964,-0.0605,-0.0120,1.0208,-0.0441,-0.0791,0.0280
12974,-0.0603,-0.0110,1.0142,0.0017,-0.0485,0.0127
12984,-0.0559,-0.0110,1.0166,-0.0594,-0.0333,0.0127
12994,-0.0564,-0.0137,1.0107,0.0017,-0.0791,-0.0483
13004,-0.0549,-0.0137,1.0168,-0.0136,-0.0944,-0.0178
13014,-0.0620,-0.0105,1.0181,-0.0136,-0.0333,-0.0331
13024,-0.0586,-0.0117,1.0129,-0.0289,-0.0027,-0.0025
13034,-0.0557,-0.0125,1.0137,0.0017,-0.0027,-0.0941
13044,-0.0530,-0.0132,1.0171,-0.0136,-0.0638,0.0127
13054,-0.0588,-0.0110,1.0098,0.0322,-0.0791,-0.0636
13064,-0.0583,-0.0125,1.0129,0.0017,-0.0485,0.0127
13074,-0.0559,-0.0151,1.0142,-0.0441,-0.0638,-0.0178
13084,-0.0552,-0.0132,1.0110,-0.0289,-0.0485,-0.0941
13094,-0.0544,-0.0117,1.0159,0.0475,-0.0180,-0.0178
13104,-0.0549,-0.0078,1.0156,0.0017,0.0125,-0.0025
13114,-0.0554,-0.0139,1.0168,0.0169,-0.0485,0.0433
13124,-0.0591,-0.0093,1.0095,0.0017,-0.0485,0.0433
13134,-0.0601,-0.0088,1.0125,-0.0136,-0.0027,-0.0331
13144,-0.0557,-0.0100,1.0110,-0.0136,0.0125,-0.0025
13154,-0.0598,-0.0107,1.0090,-0.0594,-0.0638,-0.0178
13164,-0.0571,-0.0078,1.0081,-0.1052,0.0431,-0.0025
13174,-0.0579,-0.0093,1.0115,0.0017,0.0125,0.0585
13184,-0.0564,-0.0134,1.0159,-0.0594,-0.0180,0.0127
13194,-0.0557,-0.0142,1.0190,-0.0594,-0.0638,0.0280
13204,-0.0562,-0.0144,1.0200,-0.0899,-0.0791,-0.0025
13214,-0.0527,-0.0103,1.0220,-0.0594,0.0278,0.0891
13224,-0.0566,-0.0129,1.0137,-0.0747,-0.0180,-0.0636
13234,-0.0542,-0.0149,1.0171,-0.0289,0.0431,-0.0025
13244,-0.0596,-0.0112,1.0168,0.0475,-0.0485,-0.0636
13254,-0.0576,-0.0132,1.0154,0.0169,-0.0180,-0.0178
13264,-0.0549,-0.0132,1.0186,-0.0136,-0.0333,-0.0178
13274,-0.0588,-0.0142,1.0176,0.0017,-0.0485,0.0280
13284,-0.0557,-0.0107,1.0154,0.0169,0.0583,0.0127
13294,-0.0586,-0.0095,1.0146,0.0475,0.1041,-0.0025
13304,-0.0566,-0.0105,1.0103,0.0017,0.0736,-0.0178
13314,-0.0559,-0.0088,1.0142,0.0322,0.0278,-0.0331
13324,-0.0615,-0.0076,1.0171,0.0475,0.0125,-0.0025
13334,-0.0574,-0.0100,1.0212,0.0169,-0.0027,-0.0483
13344,-0.0542,-0.0081,1.0085,-0.0899,0.0431,-0.0331
13354,-0.0564,-0.0122,1.0171,-0.0289,-0.0485,-0.0025
13364,-0.0579,-0.0134,1.0083,-0.0899,-0.0485,-0.0025
13374,-0.0564,-0.0115,1.0190,-0.0289,0.0125,0.0127
13384,-0.0562,-0.0168,1.0146,-0.0136,-0.0333,0.0585
13394,-0.0564,-0.0125,1.0171,0.0017,-0.0638,0.0127
13404,-0.0593,-0.0178,1.0198,0.0017,-0.0027,0.0280
13414,-0.0579,-0.0142,1.0156,0.0017,-0.0485,0.0433
13424,-0.0552,-0.0137,1.0171,0.0475,-0.0180,0.0280
13434,-0.0571,-0.0115,1.0178,0.0475,-0.0638,-0.0178
13444,-0.0583,-0.0088,1.0129,0.0780,0.0278,-0.0636
13454,-0.0608,-0.0100,1.0186,0.0627,0.0583,-0.0483
13464,-0.0574,-0.0078,1.0144,0.0475,0.0278,-0.0636
13474,-0.0576,-0.0059,1.0110,0.0627,0.0125,-0.1094
13484,-0.0615,-0.0068,1.0120,0.0017,0.0431,-0.0483
13494,-0.0566,-0.0085,1.0059,-0.0289,0.0125,-0.0331
13504,-0.0581,-0.0110,1.0117,-0.0441,0.0278,0.0280
13514,-0.0552,-0.0103,1.0122,0.0017,0.0278,-0.0178
13524,-0.0564,-0.0112,1.0081,-0.0594,0.0125,-0.0789
13534,-0.0579,-0.0093,1.0168,-0.0289,-0.0638,-0.0483
13544,-0.0593,-0.0142,1.0090,-0.0289,-0.0333,-0.0941
13554,-0.0520,-0.0146,1.0151,-0.0289,-0.0333,-0.0025
13564,-0.0503,-0.0156,1.0134,-0.0441,-0.0027,0.0127
13574,-0.0566,-0.0110,1.0144,-0.0136,-0.0180,0.0127
13584,-0.0554,-0.0120,1.0115,0.0169,0.0125,0.0433
13594,-0.0593,-0.0139,1.0122,0.0017,-0.0180,0.0127
13604,-0.0576,-0.0129,1.0151,-0.0136,-0.0027,0.0127
13614,-0.0576,-0.0125,1.0139,0.0169,0.0278,0.0280
13624,-0.0620,-0.0112,1.0120,0.0017,-0.0485,-0.0636
13634,-0.0596,-0.0088,1.0085,0.0017,-0.0485,-0.0331
13644,-0.0605,-0.0046,1.0093,0.0322,-0.0333,-0.0178
13654,-0.0591,-0.0120,1.0151,0.0322,0.0125,0.0127
13664,-0.0574,-0.0078,1.0171,-0.0441,-0.0638,0.0738
13674,-0.0549,-0.0100,1.0144,0.0017,-0.1249,0.0738
13684,-0.0581,-0.0110,1.0107,-0.0594,-0.0791,-0.0025
13694,-0.0557,-0.0117,1.0054,-0.0136,-0.0485,0.0433
13704,-0.0547,-0.0139,1.0127,-0.0136,-0.0180,0.0127
13714,-0.0579,-0.0146,1.0198,-0.0747,-0.0027,0.0280
13724,-0.0547,-0.0146,1.0117,-0.0289,-0.0180,0.0127
13734,-0.0540,-0.0127,1.0146,-0.0441,-0.0333,0.0433
13744,-0.0537,-0.0125,1.0220,-0.0441,0.0583,-0.0025
13754,-0.0540,-0.0144,1.0144,-0.0136,-0.0027,-0.0178
13764,-0.0562,-0.0098,1.0085,0.0017,-0.0027,-0.0789
13774,-0.0552,-0.0129,1.0139,-0.0289,-0.0180,-0.0789
13784,-0.0554,-0.0139,1.0095,-0.0289,0.0431,-0.0636
13794,-0.0588,-0.0078,1.0146,-0.0441,-0.0333,-0.0483
13804,-0.0581,-0.0071,1.0112,-0.0289,-0.0027,0.0127
13814,-0.0569,-0.0071,1.0103,-0.0441,0.0278,0.0433
13824,-0.0530,-0.0100,1.0173,0.0017,0.0278,0.0433
13834,-0.0549,-0.0127,1.0129,0.0475,-0.0638,0.0280
13844,-0.0571,-0.0132,1.0125,0.0169,-0.0180,-0.0178
13854,-0.0610,-0.0076,1.0171,-0.0136,0.0125,-0.0178
13864,-0.0615,-0.0088,1.0125,-0.0441,-0.0180,-0.0025
13874,-0.0603,-0.0100,1.0164,0.0017,-0.0180,0.0127
13884,-0.0598,-0.0105,1.0161,-0.0289,0.0125,0.0127
13894,-0.0620,-0.0090,1.0168,-0.0441,-0.0180,-0.0178
13904,-0.0576,-0.0098,1.0110,0.0169,-0.0180,-0.0025
13914,-0.0498,-0.0146,1.0105,-0.0289,0.0431,-0.0483
13924,-0.0559,-0.0120,1.0122,-0.0441,0.0278,-0.0178
13934,-0.0510,-0.0120,1.0181,0.0017,0.0278,-0.0636
13944,-0.0566,-0.0115,1.0149,0.0017,0.0125,-0.0483
13954,-0.0537,-0.0110,1.0063,0.0475,0.0278,-0.0331
13964,-0.0605,-0.0122,1.0115,0.0322,-0.0180,-0.0483
13974,-0.0552,-0.0144,1.0195,0.0322,-0.0180,0.0127
13984,-0.0554,-0.0139,1.0186,-0.0136,0.0583,-0.0178
13994,-0.0537,-0.0129,1.0132,0.0780,-0.0180,0.0127
14004,-0.0601,-0.0122,1.0154,0.0933,0.0583,-0.0483
14014,-0.0596,-0.0107,1.0166,0.0780,-0.0027,-0.0331
14024,-0.0649,-0.0107,1.0134,0.0169,-0.0180,-0.0483
14034,-0.0605,-0.0103,1.0107,0.0627,-0.0180,-0.0636
14044,-0.0564,-0.0129,1.0142,0.0780,-0.0791,0.0127
14054,-0.0566,-0.0129,1.0127,0.0322,-0.0638,-0.0178
14064,-0.0540,-0.0125,1.0144,0.0322,-0.0027,0.0127
14074,-0.0540,-0.0125,1.0139,0.0017,0.0125,0.0433
14084,-0.0537,-0.0129,1.0129,0.0017,0.0278,-0.0636
14094,-0.0532,-0.0134,1.0156,-0.0136,-0.0027,0.0127
14104,-0.0547,-0.0137,1.0120,-0.0136,0.0278,-0.0025
14114,-0.0576,-0.0149,1.0137,0.0322,0.0736,-0.0636
14124,-0.0552,-0.0151,1.0137,0.0933,0.0736,-0.0636
14134,-0.0552,-0.0134,1.0142,0.0322,0.0125,-0.0178
14144,-0.0613,-0.0122,1.0154,0.0933,0.0431,-0.0025
14154,-0.0615,-0.0107,1.0132,0.0475,-0.0180,0.0127
14164,-0.0632,-0.0081,1.0120,0.0933,0.0278,-0.0636
14174,-0.0610,-0.0129,1.0159,0.0475,-0.0333,-0.1094
14184,-0.0603,-0.0078,1.0129,0.0627,0.0431,-0.0789
14194,-0.0564,-0.0054,1.0100,0.0322,0.0125,-0.0025
14204,-0.0559,-0.0066,1.0142,0.0933,-0.0638,-0.0331
14214,-0.0583,-0.0066,1.0110,0.0322,-0.0485,0.0127
14224,-0.0571,-0.0073,1.0125,0.0017,-0.0638,-0.0331
14234,-0.0549,-0.0073,1.0098,-0.0289,-0.0180,0.0280
14244,-0.0537,-0.0122,1.0200,-0.0441,-0.0027,-0.0025
14254,-0.0542,-0.0117,1.0166,-0.1205,-0.0027,0.0585
14264,-0.0527,-0.0151,1.0117,-0.0899,0.0431,-0.0025
14274,-0.0564,-0.0125,1.0154,-0.0289,0.0125,0.0433
14284,-0.0549,-0.0161,1.0107,-0.0289,-0.0333,0.0433
14294,-0.0593,-0.0173,1.0115,-0.0289,-0.0638,-0.0025
14304,-0.0559,-0.0171,1.0217,-0.0441,-0.0027,-0.0025
14314,-0.0579,-0.0125,1.0105,0.1085,-0.0638,0.0585
14324,-0.0569,-0.0125,1.0171,0.0933,0.0431,-0.0025
14334,-0.0574,-0.0129,1.0186,0.1238,0.0583,-0.0636
14344,-0.0557,-0.0088,1.0195,0.1391,0.0431,0.0280
14354,-0.0559,-0.0083,1.0127,0.0627,0.0583,-0.0178
14364,-0.0559,-0.0066,1.0083,-0.0136,0.0278,-0.0789
14374,-0.0576,-0.0098,1.0144,0.0017,0.0278,-0.0331
14384,-0.0581,-0.0112,1.0063,-0.0594,0.0125,-0.0331
14394,-0.0574,-0.0134,1.0190,-0.0136,0.0736,-0.0178
14404,-0.0610,-0.0081,1.0144,-0.0289,-0.0180,-0.0178
14414,-0.0591,-0.0151,1.0181,-0.0136,-0.0485,-0.0636
14424,-0.0557,-0.0115,1.0127,-0.0899,0.0278,0.0738
14434,-0.0537,-0.0159,1.0181,0.0169,0.0431,-0.0636
14444,-0.0588,-0.0129,1.0095,0.0627,0.0431,-0.0331
14454,-0.0576,-0.0137,1.0110,0.0475,0.0736,-0.0636
14464,-0.0554,-0.0129,1.0142,0.0017,-0.0027,-0.0178
14474,-0.0537,-0.0112,1.0127,0.0780,-0.0027,-0.0483
14484,-0.0581,-0.0139,1.0125,0.0780,0.0125,-0.0941
14494,-0.0569,-0.0112,1.0176,0.0933,0.0125,-0.0636
14504,-0.0566,-0.0098,1.0134,0.0169,0.0125,-0.0025
14514,-0.0581,-0.0098,1.0139,0.0627,-0.0027,-0.0025
14524,-0.0569,-0.0100,1.0112,0.0627,0.0583,-0.0331
14534,-0.0574,-0.0122,1.0193,0.1085,0.0889,-0.0636
14544,-0.0588,-0.0088,1.0129,-0.0747,-0.0333,-0.0789
14554,-0.0610,-0.0090,1.0144,0.0169,0.0125,-0.0636
14564,-0.0588,-0.0129,1.0132,-0.0136,0.0125,-0.0636
14574,-0.0601,-0.0093,1.0125,-0.0441,0.0278,0.0280
14584,-0.0566,-0.0115,1.0110,-0.0289,-0.0180,0.0280
14594,-0.0564,-0.0142,1.0134,0.0017,-0.1402,-0.0178
14604,-0.0574,-0.0159,1.0156,0.0627,-0.1554,-0.0331
14614,-0.0554,-0.0129,1.0125,0.0475,0.0125,-0.0483
14624,-0.0566,-0.0125,1.0142,0.0322,-0.0180,-0.0331
14634,-0.0562,-0.0110,1.0168,0.0322,0.0125,0.0585
14644,-0.0520,-0.0142,1.0115,0.0475,-0.0180,-0.0331
14654,-0.0552,-0.0122,1.0125,0.0169,-0.0791,-0.0178
14664,-0.0549,-0.0110,1.0083,0.0169,-0.0485,0.0127
14674,-0.0583,-0.0076,1.0164,0.0017,0.0125,-0.0483
14684,-0.0588,-0.0156,1.0186,0.0627,-0.0333,-0.0483
14694,-0.0583,-0.0100,1.0151,0.0017,-0.0027,0.0127
14704,-0.0608,-0.0125,1.0107,0.0017,-0.0333,-0.0025
14714,-0.0618,-0.0088,1.0188,0.0017,-0.0027,-0.0178
14724,-0.0596,-0.0117,1.0146,-0.0136,0.0125,0.0127
14734,-0.0583,-0.0088,1.0156,0.0169,-0.0333,0.0433
14744,-0.0566,-0.0098,1.0134,-0.0594,-0.0333,-0.0483
14754,-0.0549,-0.0085,1.0105,-0.0594,-0.1096,-0.0331
14764,-0.0559,-0.0149,1.0049,0.0017,-0.0791,0.0433
14774,-0.0588,-0.0125,1.0212,-0.0136,-0.0180,-0.0178
14784,-0.0554,-0.0132,1.0137,-0.0747,-0.0333,-0.0178
14794,-0.0549,-0.0154,1.0117,-0.0289,-0.0027,0.0127
14804,-0.0552,-0.0161,1.0127,-0.0289,-0.0333,-0.0331
14814,-0.0571,-0.0149,1.0083,-0.0747,-0.1096,-0.0483
14824,-0.0549,-0.0129,1.0132,-0.0441,-0.0485,0.0127
14834,-0.0530,-0.0132,1.0149,-0.0136,0.0431,0.0433
14844,-0.0579,-0.0115,1.0188,-0.0136,0.0125,0.0127
14854,-0.0566,-0.0098,1.0151,-0.0289,0.0278,-0.1094
14864,-0.0608,-0.0107,1.0171,-0.0289,0.1041,-0.1247
14874,-0.0593,-0.0098,1.0149,-0.0289,0.0125,-0.0789
14884,-0.0593,-0.0081,1.0159,0.0322,-0.0333,-0.1247
14894,-0.0574,-0.0105,1.0173,0.0169,0.0125,-0.0331
14904,-0.0569,-0.0095,1.0100,-0.0289,0.0278,-0.0636
14914,-0.0554,-0.0090,1.0127,-0.0289,-0.0180,0.0127
14924,-0.0542,-0.0098,1.0061,-0.0289,-0.0333,0.0891
14934,-0.0542,-0.0076,1.0078,0.0169,0.0583,0.0127
14944,-0.0581,-0.0112,1.0146,0.0322,0.0736,-0.0331
14954,-0.0535,-0.0149,1.0188,0.0169,0.0431,0.0127
14964,-0.0554,-0.0112,1.0122,0.0017,-0.0333,-0.0331
14974,-0.0566,-0.0129,1.0129,0.0169,-0.0027,0.0433
14984,-0.0537,-0.0093,1.0144,-0.0136,0.0125,0.0127
14994,-0.0554,-0.0100,1.0137,-0.0441,0.0736,0.0280
15004,-0.0559,-0.0098,1.0125,-0.0441,0.0889,-0.0636
15014,-0.0574,-0.0146,1.0149,0.0017,0.0583,0.0433
15024,-0.0581,-0.0081,1.0154,0.0017,0.0736,0.1044
15034,-0.0576,-0.0120,1.0168,-0.0289,0.0431,-0.0025
15044,-0.0579,-0.0083,1.0125,-0.0594,-0.0333,-0.1094
15054,-0.0588,-0.0110,1.0122,-0.0594,0.0431,-0.0331
15064,-0.0586,-0.0100,1.0115,-0.0289,-0.0027,-0.0483
15074,-0.0605,-0.0139,1.0100,-0.0594,-0.0333,-0.0483
15084,-0.0557,-0.0105,1.0154,-0.0136,0.0583,-0.0483
15094,-0.0574,-0.0105,1.0159,-0.0594,0.0278,-0.0483
15104,-0.0557,-0.0134,1.0149,0.0322,-0.0333,-0.0483
15114,-0.0544,-0.0112,1.0151,0.0017,-0.0944,-0.0178
15124,-0.0540,-0.0144,1.0122,-0.0289,-0.0944,0.0127
15134,-0.0576,-0.0161,1.0190,0.0169,-0.0791,-0.0331
15144,-0.0581,-0.0120,1.0146,-0.0136,-0.1096,0.0127
15154,-0.0588,-0.0137,1.0171,-0.0289,-0.0791,0.0280
15164,-0.0579,-0.0081,1.0117,0.0017,-0.0791,0.0585
15174,-0.0601,-0.0066,1.0117,0.0169,-0.0180,-0.0025
15184,-0.0576,-0.0085,1.0103,0.0017,-0.0638,-0.0331
15194,-0.0601,-0.0105,1.0173,-0.0136,-0.0485,-0.0178
15204,-0.0564,-0.0117,1.0142,-0.0289,0.0278,0.0280
15214,-0.0566,-0.0117,1.0259,-0.0136,-0.0027,-0.0178
15224,-0.0586,-0.0149,1.0110,0.0017,-0.0180,-0.0331
15234,-0.0598,-0.0144,1.0125,-0.0289,0.0125,-0.0789
15244,-0.0593,-0.0076,1.0161,0.0169,-0.0485,-0.0178
15254,-0.0544,-0.0125,1.0088,-0.0289,0.0125,-0.0331
15264,-0.0535,-0.0083,1.0127,-0.0441,0.1041,-0.0025
15274,-0.0559,-0.0105,1.0085,-0.0289,-0.0333,-0.0483
15284,-0.0557,-0.0156,1.0146,0.0017,0.0125,-0.0636
15294,-0.0557,-0.0132,1.0198,0.0017,-0.0333,-0.0178
15304,-0.0564,-0.0134,1.0139,-0.0441,-0.0333,0.0127
15314,-0.0605,-0.0134,1.0149,0.0017,0.0125,-0.0025
15324,-0.0601,-0.0105,1.0103,0.0017,0.0736,-0.0178
15334,-0.0542,-0.0088,1.0190,0.0627,-0.0027,0.0280
15344,-0.0579,-0.0154,1.0125,0.0780,-0.0027,0.0433
15354,-0.0518,-0.0088,1.0164,0.0322,-0.0180,0.0891
15364,-0.0579,-0.0120,1.0166,-0.0289,-0.0027,-0.0483
15374,-0.0583,-0.0059,1.0115,-0.1052,-0.0027,0.0127
15384,-0.0579,-0.0115,1.0071,-0.1052,0.0583,-0.0789
15394,-0.0583,-0.0090,1.0078,-0.0441,0.0278,0.0433
15404,-0.0571,-0.0103,1.0205,-0.0594,0.0583,0.0433
15414,-0.0596,-0.0095,1.0203,0.0017,0.0736,-0.0025
15424,-0.0583,-0.0112,1.0151,-0.0136,-0.0027,-0.0025
15434,-0.0569,-0.0105,1.0142,-0.0441,0.0431,0.0280
15444,-0.0562,-0.0107,1.0149,-0.0594,-0.0027,0.0280
15454,-0.0559,-0.0110,1.0100,0.0017,-0.0027,0.0280
15464,-0.0574,-0.0120,1.0129,-0.0136,-0.0485,-0.0178
15474,-0.0559,-0.0088,1.0117,0.0017,-0.0791,0.0738
15484,-0.0576,-0.0115,1.0129,0.0017,-0.0027,0.0127
15494,-0.0579,-0.0149,1.0095,0.0169,-0.0180,-0.0789
15504,-0.0559,-0.0149,1.0168,0.0475,-0.0180,0.0127
15514,-0.0571,-0.0110,1.0181,-0.0136,0.0431,0.0127
15524,-0.0588,-0.0083,1.0112,0.0169,-0.0180,-0.0025
15534,-0.0581,-0.0120,1.0195,-0.0289,-0.0791,0.0127
15544,-0.0530,-0.0132,1.0142,-0.0747,-0.0027,0.0127
15554,-0.0559,-0.0120,1.0103,-0.0747,-0.0333,0.0585
15564,-0.0547,-0.0100,1.0178,-0.0136,-0.0180,-0.0025
15574,-0.0554,-0.0078,1.0173,-0.0136,-0.0180,-0.0636
15584,-0.0554,-0.0129,1.0164,0.0169,0.0278,-0.0331
15594,-0.0566,-0.0093,1.0156,0.0322,-0.0180,-0.0025
15604,-0.0566,-0.0112,1.0146,0.0933,-0.0333,0.0127
15614,-0.0557,-0.0105,1.0120,-0.0136,-0.0485,-0.0483
15624,-0.0574,-0.0100,1.0173,-0.0289,-0.0638,-0.0331
15634,-0.0554,-0.0049,1.0171,0.0322,-0.0485,-0.0636
15644,-0.0549,-0.0098,1.0190,0.0169,-0.0791,-0.0483
15654,-0.0574,-0.0134,1.0122,-0.0289,-0.0180,-0.1094
15664,-0.0562,-0.0127,1.0168,-0.0594,-0.0333,-0.0636
15674,-0.0537,-0.0129,1.0144,-0.0136,-0.0485,-0.0483
15684,-0.0510,-0.0142,1.0193,0.0017,-0.0485,0.0585
15694,-0.0554,-0.0127,1.0125,0.0322,-0.0485,-0.0025
15704,-0.0601,-0.0120,1.0107,-0.0441,-0.0638,0.0280
15714,-0.0564,-0.0156,1.0129,-0.0136,0.0278,-0.0789
15724,-0.0571,-0.0090,1.0142,-0.0441,-0.0485,-0.0025
15734,-0.0532,-0.0115,1.0100,-0.0441,-0.0180,-0.0025
15744,-0.0522,-0.0115,1.0161,0.0169,-0.0027,-0.0636
15754,-0.0586,-0.0120,1.0122,-0.0594,0.0431,-0.0636
15764,-0.0557,-0.0112,1.0156,-0.0441,0.0736,0.0280
15774,-0.0544,-0.0120,1.0144,0.0017,-0.0180,-0.0483
15784,-0.0569,-0.0115,1.0137,0.0017,0.0278,0.0280
15794,-0.0559,-0.0142,1.0173,0.0475,-0.0485,-0.0636
15804,-0.0564,-0.0105,1.0144,-0.1052,-0.1096,-0.0178
15814,-0.0571,-0.0100,1.0132,0.0475,-0.0638,-0.0483
15824,-0.0549,-0.0110,1.0144,0.0169,-0.0485,-0.0331
15834,-0.0571,-0.0142,1.0159,0.0169,0.0125,-0.0636
15844,-0.0557,-0.0120,1.0149,-0.0289,-0.0485,-0.0331
15854,-0.0566,-0.0122,1.0154,-0.0441,-0.0791,-0.0941
15864,-0.0610,-0.0122,1.0176,-0.0136,-0.0638,-0.0025
15874,-0.0554,-0.0129,1.0227,0.0322,-0.0333,0.0127
15884,-0.0549,-0.0095,1.0149,-0.0136,-0.0944,0.0738
15894,-0.0557,-0.0098,1.0112,0.0475,-0.0027,0.0280
15904,-0.0544,-0.0110,1.0146,0.0169,-0.0638,0.0280
15914,-0.0562,-0.0117,1.0205,0.0169,-0.0638,-0.0483
15924,-0.0547,-0.0117,1.0146,0.0169,0.0125,-0.0178
15934,-0.0588,-0.0098,1.0144,0.0169,0.0736,-0.0941
15944,-0.0591,-0.0117,1.0095,0.0169,-0.0027,-0.0636
15954,-0.0596,-0.0107,1.0151,-0.0136,0.0431,-0.0483
15964,-0.0569,-0.0125,1.0166,-0.0441,0.0125,-0.0789
15974,-0.0574,-0.0125,1.0112,0.0322,-0.0180,-0.0178
15984,-0.0554,-0.0151,1.0183,0.0475,0.0431,0.0280
15994,-0.0564,-0.0142,1.0146,0.0169,0.0278,-0.0178
16004,-0.0571,-0.0120,1.0166,0.0322,-0.0180,0.0738
16014,-0.0537,-0.0137,1.0188,0.0475,0.0736,0.0127
16024,-0.0569,-0.0139,1.0132,0.0017,0.0278,-0.0483
16034,-0.0583,-0.0071,1.0137,0.0322,0.0278,-0.0331
16044,-0.0549,-0.0088,1.0198,0.0017,-0.0027,-0.0636
16054,-0.0608,-0.0093,1.0112,0.0169,-0.0333,-0.0331
16064,-0.0574,-0.0095,1.0132,0.0933,-0.0027,-0.0789
16074,-0.0571,-0.0110,1.0154,0.0017,0.0125,-0.0483
16084,-0.0591,-0.0039,1.0156,-0.0136,-0.0791,-0.0483
16094,-0.0557,-0.0151,1.0195,0.0322,0.0125,-0.0025
16104,-0.0596,-0.0098,1.0054,0.0627,0.0125,-0.0331
16114,-0.0593,-0.0085,1.0105,0.0322,-0.0791,-0.0025
16124,-0.0559,-0.0098,1.0110,-0.0441,0.0431,0.0433
16134,-0.0571,-0.0139,1.0122,-0.0136,-0.0333,0.0433
16144,-0.0566,-0.0125,1.0210,0.0017,0.0431,0.0280
16154,-0.0527,-0.0139,1.0093,-0.0136,-0.0027,-0.0178
16164,-0.0540,-0.0156,1.0117,0.0169,-0.0333,0.0585
16174,-0.0532,-0.0125,1.0134,-0.0441,-0.0638,-0.0941
16184,-0.0608,-0.0125,1.0193,0.0017,-0.0333,-0.1094
16194,-0.0620,-0.0117,1.0120,0.0627,0.0125,-0.0331
16204,-0.0579,-0.0110,1.0176,0.0322,0.0278,0.0127
16214,-0.0557,-0.0090,1.0139,0.0322,-0.0180,0.0738
16224,-0.0593,-0.0100,1.0095,0.0322,0.0278,0.1196
16234,-0.0549,-0.0093,1.0100,0.0780,0.0125,0.0891
16244,-0.0588,-0.0061,1.0046,-0.0594,0.0431,0.0127
16254,-0.0586,-0.0112,1.0164,-0.0289,-0.0180,-0.0178
16264,-0.0583,-0.0120,1.0151,-0.0136,0.0125,-0.0178
16274,-0.0571,-0.0117,1.0134,-0.0899,-0.0638,-0.0483
16284,-0.0549,-0.0120,1.0190,-0.0594,-0.1249,-0.0178
16294,-0.0547,-0.0144,1.0205,-0.0289,-0.0944,0.0738
16304,-0.0559,-0.0181,1.0168,0.0475,-0.0638,0.0433
16314,-0.0552,-0.0139,1.0146,0.0169,-0.1096,0.0280
16324,-0.0535,-0.0120,1.0115,-0.0136,-0.0638,-0.0483
16334,-0.0537,-0.0156,1.0200,0.0322,-0.0180,-0.0636
16344,-0.0557,-0.0134,1.0178,0.0322,0.0278,-0.0483
16354,-0.0549,-0.0132,1.0107,0.0322,0.0736,-0.0483
16364,-0.0574,-0.0132,1.0120,0.0933,0.0431,-0.0331
16374,-0.0532,-0.0144,1.0190,0.0933,0.0889,-0.0483
16384,-0.0557,-0.0073,1.0178,-0.0289,0.0583,-0.0331
16394,-0.0566,-0.0100,1.0146,0.0322,-0.0180,-0.0331
16404,-0.0544,-0.0098,1.0178,0.0627,0.0125,-0.0636
16414,-0.0574,-0.0095,1.0161,0.0780,0.0583,-0.0636
16424,-0.0574,-0.0110,1.0129,0.0017,0.0736,-0.0483
16434,-0.0569,-0.0112,1.0171,-0.0136,-0.1249,-0.0941
16444,-0.0591,-0.0110,1.0176,-0.0289,-0.0944,-0.0941
16454,-0.0603,-0.0112,1.0151,0.0017,-0.1249,-0.0789
16464,-0.0540,-0.0137,1.0181,0.0322,-0.0791,-0.0331
16474,-0.0540,-0.0125,1.0176,0.0017,-0.0333,-0.0483
16484,-0.0520,-0.0115,1.0132,0.0017,-0.0180,-0.0178
16494,-0.0547,-0.0132,1.0154,0.0322,-0.0027,-0.0636
16504,-0.0601,-0.0110,1.0100,0.0169,-0.0333,-0.0178
16514,-0.0583,-0.0120,1.0073,0.0475,-0.0333,0.0433
16524,-0.0603,-0.0134,1.0161,0.0933,0.0431,-0.1094
16534,-0.0588,-0.0132,1.0146,-0.0289,0.0583,-0.0178
16544,-0.0605,-0.0122,1.0146,-0.0289,0.0125,-0.0178
16554,-0.0605,-0.0088,1.0115,0.0627,0.0278,-0.0483
16564,-0.0608,-0.0129,1.0085,-0.0136,0.0431,-0.0483
16574,-0.0574,-0.0076,1.0042,-0.0136,-0.0791,-0.0025
16584,-0.0532,-0.0071,1.0166,-0.0136,-0.0333,-0.0178
16594,-0.0559,-0.0110,1.0166,-0.0594,0.0125,-0.1094
16604,-0.0542,-0.0127,1.0142,-0.0441,-0.0180,-0.0483
16614,-0.0549,-0.0149,1.0103,-0.0441,-0.0180,-0.0025
16624,-0.0549,-0.0105,1.0161,-0.0136,-0.0180,-0.0178
16634,-0.0549,-0.0115,1.0168,0.0169,0.0431,0.0280
16644,-0.0535,-0.0098,1.0137,-0.0289,0.0431,-0.0025
16654,-0.0569,-0.0146,1.0217,0.0322,-0.0027,-0.0025
16664,-0.0549,-0.0137,1.0193,0.0169,0.0431,0.0127
16674,-0.0579,-0.0105,1.0173,0.0169,-0.0485,-0.0331
16684,-0.0637,-0.0105,1.0164,0.0627,0.0278,-0.0025
16694,-0.0615,-0.0105,1.0161,-0.0289,0.0125,0.0127
16704,-0.0615,-0.0107,1.0137,-0.0136,-0.0027,0.0280
16714,-0.0593,-0.0098,1.0168,0.0017,-0.0333,0.0280
16724,-0.0574,-0.0103,1.0134,-0.0289,0.0278,-0.0636
16734,-0.0562,-0.0093,1.0134,-0.0441,-0.0027,-0.1552
16744,-0.0605,-0.0098,1.0125,0.0017,-0.1249,-0.0025
16754,-0.0527,-0.0076,1.0095,-0.0441,-0.0791,-0.0178
16764,-0.0586,-0.0098,1.0071,-0.0594,0.0125,0.0280
16774,-0.0530,-0.0125,1.0142,-0.0441,-0.0027,-0.0483
16784,-0.0535,-0.0122,1.0127,-0.0441,-0.0180,0.0585
16794,-0.0518,-0.0127,1.0063,0.0169,0.0583,0.0433
16804,-0.0530,-0.0164,1.0129,-0.0289,0.0278,0.0127
16814,-0.0557,-0.0168,1.0159,-0.1205,-0.0027,-0.0025
16824,-0.0566,-0.0146,1.0164,-0.0136,-0.0027,-0.0331
16834,-0.0557,-0.0117,1.0156,-0.0289,-0.0485,-0.1247
16844,-0.0598,-0.0159,1.0168,-0.0441,-0.0333,-0.0789
16854,-0.0574,-0.0071,1.0161,0.0475,-0.0333,0.0433
16864,-0.0610,-0.0132,1.0117,0.0169,-0.0333,0.0280
16874,-0.0586,-0.0098,1.0107,0.0017,-0.0791,0.0280
16884,-0.0537,-0.0073,1.0166,0.0322,0.0431,0.0280
16894,-0.0562,-0.0100,1.0137,-0.0289,0.0278,0.0280
16904,-0.0557,-0.0081,1.0132,-0.0594,-0.0333,-0.0025
16914,-0.0613,-0.0090,1.0100,-0.0289,-0.0638,-0.0178
16924,-0.0559,-0.0112,1.0173,0.0169,0.0278,-0.0636
16934,-0.0571,-0.0125,1.0129,-0.1357,-0.0485,-0.0483
16944,-0.0562,-0.0142,1.0173,-0.0899,-0.0027,-0.0483
16954,-0.0569,-0.0129,1.0176,-0.0747,-0.0333,0.0891
16964,-0.0571,-0.0110,1.0159,-0.0594,-0.0180,0.0433
16974,-0.0574,-0.0146,1.0188,-0.0289,0.0431,-0.0025
16984,-0.0576,-0.0146,1.0178,-0.0747,0.0889,-0.0025
16994,-0.0596,-0.0139,1.0168,-0.0136,-0.0333,-0.0331
17004,-0.0588,-0.0083,1.0115,0.0627,-0.0791,-0.0483
17014,-0.0591,-0.0095,1.0139,0.0627,-0.0944,0.0127
17024,-0.0559,-0.0107,1.0117,0.1085,-0.1402,-0.0178
17034,-0.0564,-0.0100,1.0186,0.0017,-0.0944,0.0433
17044,-0.0569,-0.0107,1.0208,-0.0136,-0.0791,0.0738
17054,-0.0552,-0.0117,1.0120,-0.0441,0.0125,0.0585
17064,-0.0522,-0.0115,1.0122,-0.0594,-0.0485,-0.0331
17074,-0.0588,-0.0134,1.0100,-0.0747,-0.0485,-0.0025
17084,-0.0549,-0.0081,1.0151,-0.0441,0.0125,-0.0331
17094,-0.0579,-0.0159,1.0186,0.0169,0.0583,-0.0941
17104,-0.0596,-0.0159,1.0105,0.0322,-0.0027,-0.0636
17114,-0.0605,-0.0125,1.0186,0.0169,-0.0333,-0.0178
17124,-0.0608,-0.0168,1.0132,0.0780,-0.0180,-0.0636
17134,-0.0610,-0.0151,1.0122,-0.0136,-0.0180,-0.0789
17144,-0.0576,-0.0117,1.0081,0.0933,-0.0485,-0.0331
17154,-0.0591,-0.0105,1.0205,0.0933,0.0431,0.0433
17164,-0.0566,-0.0088,1.0139,0.0780,0.0431,-0.0178
17174,-0.0557,-0.0098,1.0139,0.0475,-0.0180,0.0127
17184,-0.0525,-0.0095,1.0149,-0.0136,-0.0180,0.0127
17194,-0.0576,-0.0103,1.0149,-0.0289,-0.0180,0.0738
17204,-0.0579,-0.0103,1.0159,-0.0289,0.0125,-0.0178
17214,-0.0557,-0.0090,1.0125,0.0169,-0.0027,0.0433
17224,-0.0557,-0.0127,1.0181,0.0017,-0.0485,-0.0636
17234,-0.0579,-0.0117,1.0142,-0.0136,-0.0027,0.0585
17244,-0.0540,-0.0085,1.0208,-0.0441,0.0125,0.0280
17254,-0.0508,-0.0098,1.0186,0.0017,0.0431,0.0280
17264,-0.0547,-0.0098,1.0127,-0.0441,0.1041,0.0280
17274,-0.0510,-0.0120,1.0144,0.0017,0.0583,-0.0025
17284,-0.0566,-0.0168,1.0166,0.0475,0.1041,-0.0178
17294,-0.0586,-0.0098,1.0149,0.0017,0.0125,-0.0025
17304,-0.0581,-0.0142,1.0156,0.0017,0.0736,-0.0025
17314,-0.0566,-0.0125,1.0112,0.0322,0.0431,0.0280
17324,-0.0613,-0.0061,1.0139,0.0475,-0.0027,-0.0025
17334,-0.0588,-0.0088,1.0151,0.0475,0.0583,0.0433
17344,-0.0645,-0.0073,1.0122,0.0169,0.0278,0.0280
17354,-0.0613,-0.0110,1.0557,-0.1052,0.0278,-0.0025
17364,-0.0544,-0.0095,1.0361,-0.0136,-0.0333,0.0433
17374,-0.0559,-0.0095,1.0173,0.0475,-0.0638,0.0280
17384,-0.0544,-0.0100,1.0083,-0.0136,-0.0485,0.0127
17394,-0.0566,-0.0149,1.0112,-0.1357,0.0431,0.0127
17404,-0.0532,-0.0103,1.0151,-0.0747,0.0125,0.0585
17414,-0.0527,-0.0105,1.0078,0.0017,0.0431,0.0127
17424,-0.0513,-0.0115,1.0149,0.0169,0.0889,0.0433
17434,-0.0522,-0.0156,1.0195,0.0169,0.1041,0.0127
17444,-0.0532,-0.0142,1.0195,0.0627,0.0431,0.0127
17454,-0.0564,-0.0137,1.0073,0.0322,0.0736,-0.0025
17464,-0.0579,-0.0139,1.0132,0.0933,0.1194,0.0433
17474,-0.0627,-0.0107,1.0210,0.0780,0.1499,0.0433
17484,-0.0635,-0.0095,1.0159,0.0475,0.0431,0.1502
17494,-0.0598,-0.0068,1.0066,0.0780,0.0583,0.1044
17504,-0.0593,-0.0068,1.0137,0.0780,0.1194,0.1654
17514,-0.0532,-0.0083,1.0149,0.0322,0.0736,0.1044
17524,-0.0566,-0.0134,1.0132,0.0017,-0.0485,0.0891
17534,-0.0562,-0.0134,1.0107,-0.0594,-0.1096,-0.0941
17544,-0.0613,-0.0103,1.0103,-0.0594,-0.0791,-0.0789
17554,-0.0613,-0.0164,1.0249,-0.1052,0.1041,-0.0331
17564,-0.0603,-0.0154,1.0349,-0.1357,-0.0333,0.0433
17574,-0.0557,-0.0151,1.0176,0.0322,-0.1096,-0.0025
17584,-0.0496,-0.0156,0.9998,-0.0136,-0.0485,0.1349
17594,-0.0454,-0.0139,1.0173,-0.1357,0.0889,0.0585
17604,-0.0461,-0.0159,1.0300,-0.0747,0.0736,-0.0331
17614,-0.0491,-0.0125,1.0176,0.0933,0.0125,-0.0941
17624,-0.0530,-0.0129,1.0098,0.0780,0.0736,-0.1247
17634,-0.0627,-0.0093,1.0215,0.0017,0.0736,-0.1247
17644,-0.0728,-0.0132,1.0305,0.0475,0.1194,-0.1705
17654,-0.0715,-0.0090,1.0117,0.1391,-0.0944,-0.0636
17664,-0.0637,-0.0134,1.0042,0.0780,-0.0180,0.0280
17674,-0.0627,-0.0042,1.0076,0.0169,0.1347,0.0738
17684,-0.0518,-0.0063,1.0190,-0.0594,0.0125,0.1044
17694,-0.0476,-0.0005,1.0137,-0.0136,-0.0333,0.1196
17704,-0.0510,-0.0068,1.0049,-0.0899,-0.0485,0.0738
17714,-0.0537,-0.0083,1.0093,-0.2121,0.0125,-0.0331
17724,-0.0520,-0.0125,1.0193,-0.1663,0.0583,-0.1247
17734,-0.0574,-0.0193,1.0195,-0.1357,0.0278,-0.0789
17744,-0.0598,-0.0144,1.0146,-0.1357,0.0125,-0.0483
17754,-0.0603,-0.0132,1.0120,-0.1052,0.0431,-0.0636
17764,-0.0588,-0.0178,1.0222,-0.0899,0.0583,0.0127
17774,-0.0532,-0.0149,1.0190,-0.0136,0.0431,0.0127
17784,-0.0557,-0.0186,1.0159,0.0322,-0.0180,-0.0178
17794,-0.0513,-0.0151,1.0078,0.0627,0.0125,-0.0178
17804,-0.0571,-0.0098,1.0105,0.1085,0.0125,-0.0483
17814,-0.0645,-0.0098,1.0376,-0.1205,0.1499,-0.0025
17824,-0.0652,-0.0063,1.0308,-0.0289,0.0125,-0.0331
17834,-0.0562,-0.0056,1.0029,0.0933,-0.2165,-0.0483
17844,-0.0547,-0.0037,0.9939,0.0017,-0.0638,0.0280
17854,-0.0562,0.0017,1.0181,-0.2579,0.4095,-0.0025
17864,-0.0535,-0.0100,1.0784,-0.5174,0.3179,-0.0025
17874,-0.0452,-0.0125,1.0249,0.0475,-0.1096,-0.0178
17884,-0.0483,-0.0144,0.9727,0.2002,-0.2928,-0.0941
17894,-0.0535,-0.0156,0.9985,-0.1663,0.1194,-0.1247
17904,-0.0601,-0.0212,1.0540,-0.4105,0.2873,-0.1705
17914,-0.0613,-0.0254,1.0334,-0.0747,0.1194,-0.0789
17924,-0.0623,-0.0193,0.9905,0.1544,0.0278,-0.1094
17934,-0.0723,-0.0171,1.0134,-0.0747,0.2110,0.0280
17944,-0.0630,-0.0112,1.0408,-0.0136,0.2110,0.0280
17954,-0.0581,-0.0049,1.0215,0.1238,-0.0791,0.0433
17964,-0.0637,-0.0095,0.9985,0.2154,-0.0638,-0.0331
17974,-0.0603,-0.0039,1.0125,0.0475,0.0431,-0.0483
17984,-0.0618,-0.0010,1.0273,0.0322,0.0278,-0.0025
17994,-0.0552,-0.0044,1.0059,0.0933,-0.1554,-0.0483
18004,-0.0552,-0.0051,1.0044,0.0627,-0.0638,-0.0483
18014,-0.0576,-0.0051,1.0100,-0.0441,0.0278,-0.0636
18024,-0.0535,-0.0103,1.0242,-0.0747,0.0278,0.0280
18034,-0.0505,-0.0132,1.0068,-0.1510,-0.0485,-0.0025
18044,-0.0520,-0.0127,1.0144,-0.1052,-0.1096,0.0891
18054,-0.0544,-0.0161,1.0178,-0.0594,0.0125,-0.0025
18064,-0.0549,-0.0144,1.0183,-0.1052,0.0889,0.0433
18074,-0.0508,-0.0176,1.0178,-0.0441,0.0889,-0.0331
18084,-0.0610,-0.0205,1.0171,-0.0136,0.0889,0.0585
18094,-0.0588,-0.0181,1.0261,-0.0136,0.1041,-0.0178
18104,-0.0608,-0.0149,1.0149,0.0475,0.0889,-0.0789
18114,-0.0627,-0.0115,1.0154,0.0933,0.1041,-0.0025
18124,-0.0632,-0.0139,1.0190,0.0627,0.1347,-0.0025
18134,-0.0586,-0.0095,1.0181,0.0933,-0.0485,0.0433
18144,-0.0591,-0.0107,1.0122,0.0627,-0.0027,0.0127
18154,-0.0557,-0.0078,1.0134,0.0322,-0.1554,0.0585
18164,-0.0576,-0.0081,1.0134,0.0475,-0.0485,0.0280
18174,-0.0547,-0.0056,1.0103,0.0475,0.0125,-0.0483
18184,-0.0596,-0.0081,1.0151,-0.0136,-0.0333,-0.0636
18194,-0.0591,-0.0100,1.0105,-0.0594,0.0278,-0.0483
18204,-0.0569,-0.0171,1.0173,-0.1357,0.0278,-0.0025
18214,-0.0583,-0.0100,1.0178,-0.1815,0.0278,0.0127
18224,-0.0557,-0.0149,1.0093,-0.1205,0.0125,0.0280
18234,-0.0562,-0.0151,1.0149,-0.0747,-0.0027,-0.0331
18244,-0.0544,-0.0171,1.0227,-0.0899,0.0125,0.0280
18254,-0.0596,-0.0156,1.0193,-0.0136,0.0889,0.0127
18264,-0.0569,-0.0139,1.0146,0.0933,-0.0638,0.0433
18274,-0.0613,-0.0146,1.0125,0.0780,-0.0791,0.0280
18284,-0.0603,-0.0117,1.0078,0.0933,-0.0027,-0.0483
18294,-0.0549,-0.0073,1.0164,0.0627,-0.0638,-0.0789
18304,-0.0562,-0.0090,1.0112,0.0780,-0.0791,-0.0025
18314,-0.0564,-0.0088,1.0107,0.1085,-0.0638,0.0280
18324,-0.0532,-0.0066,1.0208,0.0169,0.0431,-0.0178
18334,-0.0535,-0.0068,1.0164,-0.0289,-0.0027,-0.0636
18344,-0.0547,-0.0076,1.0088,0.0322,-0.0485,-0.0941
18354,-0.0559,-0.0117,1.0129,-0.0441,-0.0180,-0.0636
18364,-0.0535,-0.0122,1.0159,-0.0289,-0.0333,0.0127
18374,-0.0586,-0.0146,1.0229,-0.0747,0.0889,0.0280
18384,-0.0613,-0.0129,1.0212,-0.0441,0.0125,0.0127
18394,-0.0649,-0.0159,1.0159,-0.0289,0.0583,0.0433
18404,-0.0647,-0.0112,1.0115,-0.0594,0.0278,0.0127
18414,-0.0615,-0.0125,1.0137,-0.0747,-0.0027,-0.0025
18424,-0.0574,-0.0103,1.0161,0.0475,-0.0027,0.0280
18434,-0.0579,-0.0149,1.0132,0.0475,-0.0027,0.0127
18444,-0.0605,-0.0107,1.0117,0.0933,0.0125,-0.0483
18454,-0.0544,-0.0112,1.0193,0.0169,0.0278,-0.0025
18464,-0.0574,-0.0151,1.0178,0.0169,-0.0333,-0.0789
18474,-0.0603,-0.0107,1.0142,0.0627,-0.0027,-0.0331
18484,-0.0620,-0.0076,1.0120,0.0017,-0.0485,-0.0331
18494,-0.0688,-0.0122,1.0154,0.0322,-0.0638,0.0280
18504,-0.0525,-0.0105,1.0203,0.0475,-0.0485,0.0433
18514,-0.0588,-0.0117,1.0134,0.0017,0.0278,0.0585
18524,-0.0588,-0.0132,1.0134,-0.0441,-0.0027,-0.0025
18534,-0.0535,-0.0090,1.0095,0.0627,-0.0333,0.0280
18544,-0.0588,-0.0083,1.0098,0.0475,-0.0180,0.0433
18554,-0.0579,-0.0100,1.0173,-0.0289,-0.0333,0.0585
18564,-0.0500,-0.0088,1.0110,-0.0899,-0.1249,0.0127
18574,-0.0562,-0.0103,1.0056,-0.1052,-0.0180,-0.0789
18584,-0.0503,-0.0132,1.0068,-0.0136,-0.0180,-0.0636
18594,-0.0562,-0.0164,1.0183,-0.1052,-0.0638,-0.0025
18604,-0.0583,-0.0168,1.0146,-0.0441,-0.0485,0.0127
18614,-0.0576,-0.0193,1.0183,-0.0441,-0.0180,-0.0636
18624,-0.0566,-0.0154,1.0125,0.0169,0.0278,-0.0178
18634,-0.0591,-0.0115,0.9954,0.0627,0.0431,0.0585
18644,-0.0566,-0.0112,1.0027,0.1085,0.0278,0.0280
18654,-0.0576,-0.0107,1.0122,0.0933,0.0278,-0.0178
18664,-0.0591,-0.0098,1.0181,0.0780,-0.0638,-0.0483
18674,-0.0547,-0.0071,1.0176,0.0780,-0.0180,-0.0178
18684,-0.0596,-0.0054,1.0195,0.0322,-0.0333,-0.0483
18694,-0.0623,-0.0132,1.0193,0.0017,-0.0333,-0.0636
18704,-0.0579,-0.0100,1.0117,0.0475,-0.0180,0.0127
18714,-0.0586,-0.0125,1.0149,-0.0136,0.0125,0.0738
18724,-0.0552,-0.0122,1.0166,0.0475,-0.0180,0.0585
18734,-0.0571,-0.0112,1.0105,0.0017,0.0125,0.0433
18744,-0.0552,-0.0129,1.0088,-0.0289,-0.0027,-0.0636
18754,-0.0571,-0.0112,1.0115,0.0169,-0.0333,-0.0636
18764,-0.0562,-0.0127,1.0125,-0.0289,-0.0638,-0.0331
18774,-0.0586,-0.0132,1.0137,0.0322,0.0278,-0.0483
18784,-0.0598,-0.0122,1.0127,-0.0136,-0.0027,0.0127
18794,-0.0579,-0.0081,1.0010,0.0322,-0.0791,0.0127
18804,-0.0618,-0.0098,1.0237,0.0627,-0.0333,0.0738
18814,-0.0574,-0.0142,1.0215,-0.0441,-0.0333,-0.0025
18824,-0.0586,-0.0117,1.0186,-0.0136,-0.0485,-0.0636
18834,-0.0569,-0.0125,1.0173,0.0322,-0.0638,-0.0483
18844,-0.0537,-0.0112,1.0100,0.0169,-0.0638,-0.0178
18854,-0.0574,-0.0120,1.0129,-0.0289,-0.0027,-0.0025
18864,-0.0566,-0.0107,1.0164,-0.0441,-0.0333,-0.0636
18874,-0.0591,-0.0164,1.0078,0.0017,0.0125,0.0127
18884,-0.0610,-0.0110,1.0156,-0.0289,-0.0180,0.0280
18894,-0.0601,-0.0125,1.0103,-0.0441,-0.0180,-0.0331
18904,-0.0591,-0.0088,1.0110,-0.0136,0.0278,0.0585
18914,-0.0618,-0.0107,1.0103,-0.0594,-0.0485,0.0280
18924,-0.0618,-0.0129,1.0208,-0.1052,-0.0027,0.0433
18934,-0.0596,-0.0107,1.0149,-0.0136,-0.0791,0.0891
18944,-0.0596,-0.0095,1.0139,-0.0899,-0.0638,0.0433
18954,-0.0540,-0.0139,1.0049,-0.0289,-0.1096,0.1196
18964,-0.0544,-0.0159,1.0154,-0.0136,-0.1554,0.0585
18974,-0.0591,-0.0161,1.0125,-0.0289,-0.1554,0.0433
18984,-0.0579,-0.0159,1.0217,0.0017,-0.1707,0.0127
18994,-0.0549,-0.0112,1.0171,0.0169,-0.1249,-0.0483
19004,-0.0503,-0.0103,1.0186,0.0780,-0.0944,-0.0789
19014,-0.0515,-0.0098,1.0098,0.0475,-0.0944,-0.0331
19024,-0.0571,-0.0076,0.9988,0.0322,0.0583,-0.0789
19034,-0.0554,-0.0066,1.0166,0.0017,0.0736,0.0127
19044,-0.0554,-0.0105,1.0137,-0.1052,-0.0333,-0.0178
19054,-0.0586,-0.0085,1.0105,0.0169,-0.0333,-0.0025
19064,-0.0547,-0.0115,1.0032,-0.0136,-0.0333,0.0280
19074,-0.0564,-0.0078,1.0164,-0.0899,-0.0027,-0.0178
19084,-0.0618,-0.0088,1.0208,-0.0747,0.1041,-0.0178
19094,-0.0586,-0.0164,1.0210,0.0322,-0.0027,-0.0331
19104,-0.0620,-0.0144,1.0146,0.0017,-0.0791,-0.0331
19114,-0.0579,-0.0198,1.0159,0.0169,-0.0333,0.0280
19124,-0.0591,-0.0166,1.0222,-0.0441,-0.0638,0.0280
19134,-0.0566,-0.0164,1.0188,-0.0136,-0.0027,-0.0025
19144,-0.0544,-0.0125,1.0115,0.0475,-0.1402,-0.0483
19154,-0.0559,-0.0107,1.0149,0.0017,-0.1249,-0.0178
19164,-0.0500,-0.0129,1.0181,0.0627,-0.0485,-0.0483
19174,-0.0571,-0.0098,1.0159,0.0017,-0.0333,-0.0331
19184,-0.0557,-0.0095,1.0125,0.0169,0.0431,-0.0636
19194,-0.0610,-0.0073,1.0093,0.0475,0.0889,-0.0483
19204,-0.0559,-0.0095,1.0139,0.0322,-0.0027,-0.0941
19214,-0.0598,-0.0110,1.0178,0.0322,-0.0333,-0.0483
19224,-0.0583,-0.0059,1.0122,0.0627,-0.0638,-0.0331
19234,-0.0583,-0.0049,1.0088,0.0017,-0.0333,-0.0636
19244,-0.0564,-0.0115,1.0190,-0.0747,-0.0027,-0.0178
19254,-0.0608,-0.0112,1.0176,-0.1510,0.0431,0.0280
19264,-0.0586,-0.0085,1.0151,-0.0441,0.0431,-0.0025
19274,-0.0608,-0.0107,1.0137,0.0017,0.0278,-0.0789
19284,-0.0535,-0.0139,1.0198,0.0017,0.0431,-0.0941
19294,-0.0571,-0.0168,1.0208,0.0475,-0.0027,0.0127
19304,-0.0547,-0.0117,1.0151,-0.0289,0.0583,-0.0025
19314,-0.0544,-0.0171,1.0156,0.0169,0.0431,-0.0331
19324,-0.0540,-0.0151,1.0027,0.0627,0.0125,-0.0789
19334,-0.0540,-0.0107,1.0120,0.0475,-0.0027,-0.0483
19344,-0.0566,-0.0090,1.0146,0.0780,-0.0027,-0.0483
19354,-0.0559,-0.0120,1.0095,0.1085,-0.0027,-0.0331
19364,-0.0564,-0.0120,1.0117,0.0169,0.0125,-0.0636
19374,-0.0615,-0.0098,1.0129,0.0322,-0.0180,-0.0178
19384,-0.0596,-0.0083,1.0115,0.0475,-0.0333,-0.0331
19394,-0.0571,-0.0115,1.0142,0.0169,-0.0027,-0.0178
19404,-0.0601,-0.0115,1.0103,0.0322,0.0125,-0.0178
19414,-0.0635,-0.0120,1.0137,-0.0289,-0.0485,0.0280
19424,-0.0576,-0.0103,1.0300,-0.0747,0.0125,-0.0483
19434,-0.0564,-0.0125,1.0295,-0.0747,0.0278,0.0280
19444,-0.0603,-0.0117,1.0205,-0.0747,0.0278,-0.0331
19454,-0.0554,-0.0159,1.0200,-0.0594,0.0125,-0.0941
19464,-0.0605,-0.0142,1.0203,0.0169,-0.0791,-0.0941
19474,-0.0532,-0.0120,1.0129,0.0933,-0.0791,0.0127
19484,-0.0566,-0.0134,1.0110,0.0322,-0.0944,-0.0789
19494,-0.0562,-0.0144,1.0122,-0.0136,-0.0485,-0.0636
19504,-0.0549,-0.0090,1.0242,-0.0441,-0.0333,0.0127
19514,-0.0552,-0.0098,1.0161,0.0169,-0.0027,-0.0178
19524,-0.0627,-0.0137,1.0173,0.0780,0.0431,-0.0483
19534,-0.0564,-0.0120,1.0178,-0.0136,0.0736,-0.0025
19544,-0.0583,-0.0151,1.0154,0.1085,0.0278,-0.0178
19554,-0.0605,-0.0090,1.0129,0.0017,0.0431,0.0280
19564,-0.0581,-0.0088,1.0093,0.0169,0.0736,-0.0178
19574,-0.0559,-0.0132,1.0273,-0.0136,0.0431,-0.0178
19584,-0.0544,-0.0103,1.0222,0.0169,0.0125,-0.0331
19594,-0.0566,-0.0134,1.0237,-0.0136,0.0125,-0.0483
19604,-0.0562,-0.0125,1.0222,0.0169,-0.0180,-0.0941
19614,-0.0554,-0.0112,1.0144,0.0017,-0.0944,-0.0483
19624,-0.0608,-0.0151,1.0129,0.0169,-0.0333,-0.0789
19634,-0.0566,-0.0105,1.0156,0.0169,-0.0638,-0.0178
19644,-0.0549,-0.0137,1.0181,0.0322,-0.0180,-0.0178
19654,-0.0540,-0.0139,1.0132,0.0169,-0.0027,-0.0331
19664,-0.0540,-0.0129,1.0161,0.0627,-0.0638,0.0127
19674,-0.0552,-0.0105,1.0115,0.0475,-0.0180,-0.0483
19684,-0.0601,-0.0110,1.0117,-0.0136,-0.0333,0.0127
19694,-0.0586,-0.0085,1.0129,-0.0289,0.0278,-0.0483
19704,-0.0559,-0.0107,1.0195,0.0475,-0.1096,-0.0483
19714,-0.0598,-0.0112,1.0188,-0.0136,-0.0027,0.0127
19724,-0.0603,-0.0110,1.0137,0.0475,0.0278,0.0127
19734,-0.0547,-0.0137,1.0129,-0.0289,0.0278,0.0280
19744,-0.0566,-0.0154,1.0181,-0.0289,0.0125,0.0127
19754,-0.0527,-0.0142,1.0095,0.0169,-0.0485,-0.0636
19764,-0.0564,-0.0127,1.0186,-0.0289,-0.0027,-0.0483
19774,-0.0557,-0.0115,1.0166,0.0322,0.0278,-0.0025
19784,-0.0554,-0.0110,1.0142,-0.0594,-0.0180,-0.0789
19794,-0.0554,-0.0139,1.0146,-0.0594,0.0431,-0.0331
19804,-0.0566,-0.0137,1.0076,0.0627,-0.0180,0.0127
19814,-0.0586,-0.0139,1.0156,0.0322,0.0583,-0.0483
19824,-0.0581,-0.0134,1.0105,-0.0441,0.0583,-0.0025
19834,-0.0547,-0.0107,1.0159,-0.0747,-0.0180,0.0280
19844,-0.0576,-0.0095,1.0127,-0.0441,0.0278,-0.0331
19854,-0.0549,-0.0137,1.0125,-0.0441,-0.0638,-0.0331
19864,-0.0588,-0.0134,1.0186,-0.0136,-0.0485,0.0433
19874,-0.0564,-0.0137,1.0156,-0.0289,-0.0027,-0.0331
19884,-0.0564,-0.0110,1.0154,-0.0441,0.0278,-0.0941
19894,-0.0547,-0.0122,1.0112,-0.0289,-0.0333,-0.0331
19904,-0.0571,-0.0144,1.0071,0.0017,-0.0180,-0.0178
19914,-0.0564,-0.0151,1.0103,-0.0136,-0.0333,0.0433
19924,-0.0610,-0.0103,1.0088,0.0017,-0.0485,-0.0178
19934,-0.0574,-0.0120,1.0144,-0.0441,-0.0638,0.0280
19944,-0.0566,-0.0146,1.0134,-0.0136,-0.0180,0.0433
19954,-0.0559,-0.0120,1.0176,0.0017,-0.0027,-0.0025
19964,-0.0574,-0.0093,1.0125,-0.0136,-0.1096,0.0280
19974,-0.0569,-0.0088,1.0215,-0.0441,-0.0791,0.0127
19984,-0.0566,-0.0105,1.0176,-0.0136,-0.0791,0.0127
19994,-0.0586,-0.0093,1.0127,-0.0594,0.0125,-0.0025
20004,-0.0564,-0.0107,1.0105,0.0169,0.0431,0.0585
20014,-0.0596,-0.0098,1.0146,0.0780,0.0125,-0.0789
20024,-0.0610,-0.0137,1.0117,0.0475,-0.0333,-0.0483
20034,-0.0586,-0.0144,1.0090,-0.0289,-0.0027,0.0738
20044,-0.0566,-0.0090,1.0134,0.0017,0.0278,0.0738
20054,-0.0586,-0.0120,1.0127,0.0169,-0.0485,0.0738
20064,-0.0588,-0.0115,1.0154,-0.0289,-0.0027,-0.0331
20074,-0.0581,-0.0083,1.0046,-0.0289,-0.0027,0.0127
20084,-0.0542,-0.0125,1.0149,-0.0441,-0.0027,0.0280
20094,-0.0566,-0.0142,1.0198,0.0017,-0.0180,0.0433
20104,-0.0557,-0.0112,1.0168,-0.0441,-0.0944,0.0280
20114,-0.0559,-0.0129,1.0117,-0.0441,-0.0791,-0.0331
20124,-0.0576,-0.0181,1.0110,-0.0747,0.0431,-0.0025
20134,-0.0579,-0.0127,1.0232,-0.1205,-0.0180,-0.0483
20144,-0.0547,-0.0159,1.0161,-0.0594,-0.1096,-0.0178
20154,-0.0581,-0.0120,1.0203,0.0627,-0.0180,0.0738
20164,-0.0547,-0.0105,1.0112,0.0322,-0.0485,0.0738
20174,-0.0574,-0.0122,1.0159,0.0169,-0.0485,0.0280
20184,-0.0583,-0.0110,1.0137,-0.0136,-0.0180,0.0738
20194,-0.0579,-0.0112,1.0134,0.0169,-0.0180,-0.0025
20204,-0.0562,-0.0095,1.0134,-0.0289,-0.0333,0.0280
20214,-0.0569,-0.0095,1.0190,0.0169,-0.0333,-0.0483
20224,-0.0605,-0.0132,1.0168,0.0475,-0.0485,-0.0483
20234,-0.0603,-0.0095,1.0117,-0.0136,-0.0333,0.0127
20244,-0.0608,-0.0117,1.0278,-0.0136,-0.0333,-0.0789
20254,-0.0598,-0.0122,1.0112,0.0322,-0.0027,-0.0636
20264,-0.0596,-0.0137,1.0054,-0.0441,-0.0333,-0.0941
20274,-0.0579,-0.0115,1.0203,-0.0289,0.0431,-0.0331
20284,-0.0610,-0.0107,1.0176,0.0017,0.0431,-0.0636
20294,-0.0559,-0.0110,1.0127,-0.0289,-0.0485,-0.0331
20304,-0.0581,-0.0127,1.0134,-0.1052,0.0125,-0.0331
20314,-0.0537,-0.0068,1.0168,0.0017,-0.0791,-0.0331
20324,-0.0562,-0.0120,1.0161,-0.0594,-0.0638,0.0433
20334,-0.0571,-0.0149,1.0134,-0.0136,-0.0638,0.0433
20344,-0.0596,-0.0122,1.0132,0.0322,0.0125,-0.0483
20354,-0.0510,-0.0100,1.0093,-0.0136,-0.0485,0.0280
20364,-0.0562,-0.0110,1.0139,-0.0289,-0.1096,-0.0025
20374,-0.0549,-0.0095,1.0129,-0.0289,-0.0485,-0.0178
20384,-0.0583,-0.0100,1.0149,-0.0289,-0.0180,0.0280
20394,-0.0552,-0.0110,1.0164,0.0017,0.0431,-0.0331
20404,-0.0569,-0.0134,1.0171,-0.0136,0.0125,-0.0636
20414,-0.0564,-0.0098,1.0156,-0.0289,-0.0333,-0.0025
20424,-0.0542,-0.0107,1.0176,0.0169,-0.0027,0.0280
20434,-0.0588,-0.0093,1.0120,-0.0136,-0.0027,-0.0178
20444,-0.0552,-0.0125,1.0173,-0.0136,-0.0027,-0.0331
20454,-0.0540,-0.0127,1.0176,0.0017,-0.0027,-0.0483
20464,-0.0566,-0.0107,1.0110,-0.0136,0.0125,-0.0331
20474,-0.0583,-0.0134,1.0171,-0.0441,-0.0180,0.0585
20484,-0.0562,-0.0088,1.0117,-0.0289,0.0125,0.0280
20494,-0.0583,-0.0132,1.0142,0.0169,-0.0791,-0.0331
20504,-0.0562,-0.0088,1.0134,-0.0441,-0.0791,-0.0178
20514,-0.0557,-0.0146,1.0181,0.0322,0.0583,-0.0636
20524,-0.0591,-0.0105,1.0171,-0.0289,-0.0638,0.0280
20534,-0.0588,-0.0090,1.0161,0.0017,-0.0485,-0.0483
20544,-0.0601,-0.0115,1.0142,0.0627,-0.0027,-0.0025
20554,-0.0571,-0.0095,1.0066,0.0169,-0.0180,-0.0025
20564,-0.0566,-0.0142,1.0164,0.0169,-0.0333,0.0585
20574,-0.0566,-0.0137,1.0156,-0.0289,-0.0180,-0.0025
20584,-0.0586,-0.0112,1.0142,0.0169,-0.0180,-0.0636
20594,-0.0583,-0.0146,1.0137,-0.0441,-0.0485,-0.0483
20604,-0.0610,-0.0132,1.0110,-0.0747,-0.0027,-0.0178
20614,-0.0586,-0.0115,1.0151,0.0017,-0.0333,-0.1094
20624,-0.0588,-0.0120,1.0200,-0.0747,-0.0791,-0.0789
20634,-0.0593,-0.0107,1.0146,0.0017,-0.0791,-0.0331
20644,-0.0591,-0.0115,1.0159,-0.0594,-0.0791,-0.0025
20654,-0.0557,-0.0088,1.0098,-0.0441,-0.0485,0.0585
20664,-0.0571,-0.0112,1.0103,-0.0594,-0.0333,-0.0483
20674,-0.0557,-0.0103,1.0154,0.0322,-0.0180,-0.0789
20684,-0.0579,-0.0090,1.0159,-0.0136,0.1041,0.0280
20694,-0.0574,-0.0176,1.0200,0.0169,-0.0333,0.0127
20704,-0.0579,-0.0144,1.0154,-0.0594,-0.0485,-0.0331
20714,-0.0632,-0.0125,1.0181,-0.0441,-0.0791,0.0127
20724,-0.0522,-0.0090,1.0132,-0.0136,-0.0944,-0.0483
20734,-0.0596,-0.0134,1.0161,-0.0136,-0.0638,-0.1094
20744,-0.0566,-0.0125,1.0173,0.0169,-0.0180,0.0127
20754,-0.0557,-0.0085,1.0134,0.0475,-0.0333,-0.0941
20764,-0.0581,-0.0127,1.0168,0.0017,0.0125,-0.0789
20774,-0.0564,-0.0085,1.0127,0.0475,0.0125,-0.0025
20784,-0.0532,-0.0137,1.0149,0.0780,-0.0180,-0.0331
20794,-0.0557,-0.0134,1.0098,0.0780,-0.0485,-0.0789
20804,-0.0559,-0.0100,1.0134,0.0169,-0.0027,-0.0789
20814,-0.0586,-0.0129,1.0146,0.0169,-0.0180,-0.0941
20824,-0.0576,-0.0117,1.0164,-0.0136,0.0125,-0.1094
20834,-0.0601,-0.0154,1.0134,-0.0136,-0.1249,0.0127
20844,-0.0620,-0.0129,1.0142,0.0017,-0.0638,-0.0178
20854,-0.0579,-0.0117,1.0122,0.0169,-0.0485,-0.0025
20864,-0.0566,-0.0112,1.0215,-0.0136,-0.0333,0.0127
20874,-0.0557,-0.0127,1.0195,-0.0289,-0.0485,-0.0483
20884,-0.0537,-0.0166,1.0151,0.0017,-0.0027,-0.0789
20894,-0.0583,-0.0132,1.0110,0.0169,0.0431,-0.0789
20904,-0.0547,-0.0127,1.0166,-0.0136,-0.0333,-0.0789
20914,-0.0549,-0.0139,1.0183,-0.0289,-0.0180,-0.0178
20924,-0.0574,-0.0100,1.0125,0.0322,-0.0638,-0.0636
20934,-0.0522,-0.0120,1.0181,0.0475,-0.0027,-0.0178
20944,-0.0557,-0.0107,1.0146,-0.0289,-0.0638,-0.0331
20954,-0.0608,-0.0122,1.0176,0.0169,-0.0180,-0.0025
20964,-0.0579,-0.0164,1.0154,-0.0136,0.0431,-0.0483
20974,-0.0586,-0.0125,1.0164,-0.0441,0.0431,-0.0025
20984,-0.0574,-0.0112,1.0200,-0.0441,0.0125,-0.0025
20994,-0.0562,-0.0127,1.0171,0.0017,-0.0333,-0.0483
21004,-0.0569,-0.0125,1.0112,-0.0136,-0.0027,-0.0178
21014,-0.0632,-0.0100,1.0188,-0.0289,-0.0333,-0.0178
21024,-0.0605,-0.0134,1.0125,0.0017,-0.0944,-0.0178
21034,-0.0559,-0.0127,1.0186,-0.0441,0.0431,-0.1094
21044,-0.0581,-0.0132,1.0144,0.0169,0.0278,-0.0178
21054,-0.0549,-0.0115,1.0112,0.0169,0.0125,-0.0178
21064,-0.0547,-0.0098,1.0181,0.0017,-0.0638,0.0585
21074,-0.0559,-0.0125,1.0195,-0.0136,-0.0027,0.0127
21084,-0.0544,-0.0100,1.0125,-0.0289,-0.0638,-0.0331
21094,-0.0566,-0.0100,1.0107,0.0169,-0.0180,-0.0789
21104,-0.0552,-0.0134,1.0137,0.0322,0.0431,-0.0483
21114,-0.0571,-0.0100,1.0166,0.0169,-0.0333,0.0433
21124,-0.0537,-0.0115,1.0122,0.0322,-0.0180,0.0127
21134,-0.0601,-0.0161,1.0134,0.0322,0.0431,-0.0331
21144,-0.0552,-0.0146,1.0144,0.0475,0.0125,-0.0025
21154,-0.0596,-0.0139,1.0168,0.0169,0.0278,0.0127
21164,-0.0554,-0.0090,1.0127,0.0322,-0.0485,0.0585
21174,-0.0601,-0.0095,1.0161,0.0169,-0.0027,0.0280
21184,-0.0586,-0.0078,1.0122,0.0933,-0.0333,-0.0178
21194,-0.0588,-0.0085,1.0164,0.0169,0.0583,-0.0178
21204,-0.0596,-0.0078,1.0071,-0.0136,-0.0027,0.0127
21214,-0.0547,-0.0117,1.0173,0.0627,-0.0027,-0.0483
21224,-0.0569,-0.0110,1.0112,0.0475,-0.1096,-0.0178
21234,-0.0532,-0.0095,1.0093,0.0017,-0.0333,-0.0025
21244,-0.0562,-0.0120,1.0139,0.0169,-0.0180,-0.0178
21254,-0.0583,-0.0159,1.0151,-0.0594,-0.0027,0.0433
21264,-0.0603,-0.0134,1.0203,-0.1052,0.0278,0.0585
21274,-0.0583,-0.0129,1.0115,-0.0289,0.0125,-0.0178
21284,-0.0569,-0.0151,1.0161,-0.0289,-0.0027,-0.0483
21294,-0.0576,-0.0149,1.0134,-0.0136,-0.0333,-0.0331
21304,-0.0588,-0.0134,1.0112,0.0017,-0.0180,0.0280
21314,-0.0571,-0.0115,1.0139,0.0017,0.0736,-0.0331
21324,-0.0576,-0.0120,1.0129,0.1085,0.0583,-0.0025
21334,-0.0547,-0.0127,1.0159,0.0017,0.0125,0.0127
21344,-0.0559,-0.0100,1.0156,-0.0136,-0.0485,0.0127
21354,-0.0569,-0.0107,1.0198,-0.0747,0.0125,-0.0483
21364,-0.0562,-0.0112,1.0168,0.0017,-0.0638,-0.0789
21374,-0.0586,-0.0107,1.0100,-0.0136,-0.0027,-0.0025
21384,-0.0596,-0.0125,1.0149,0.0017,0.0431,0.0127
21394,-0.0576,-0.0085,1.0134,-0.0136,-0.0791,-0.0483
21404,-0.0571,-0.0117,1.0085,-0.0136,-0.0180,0.0127
21414,-0.0554,-0.0103,1.0098,-0.0594,0.0125,-0.0025
21424,-0.0576,-0.0120,1.0149,-0.0441,-0.0333,0.0585
21434,-0.0576,-0.0125,1.0142,-0.0289,-0.0180,0.0738
21444,-0.0586,-0.0117,1.0146,-0.0289,-0.0485,-0.0483
21454,-0.0596,-0.0100,1.0164,0.0475,0.0278,0.0127
21464,-0.0601,-0.0127,1.0115,-0.0289,0.0431,-0.0483
21474,-0.0601,-0.0117,1.0188,0.0017,-0.0027,-0.0331
21484,-0.0596,-0.0132,1.0100,-0.0594,-0.0027,-0.0483
21494,-0.0576,-0.0151,1.0156,-0.0136,-0.0485,-0.0178
21504,-0.0562,-0.0125,1.0151,0.0627,-0.0638,-0.0025
21514,-0.0591,-0.0100,1.0122,-0.0289,-0.0485,-0.0483
21524,-0.0571,-0.0137,1.0156,0.0169,-0.0638,0.0127
21534,-0.0574,-0.0083,1.0146,0.0017,-0.0180,0.0127
21544,-0.0532,-0.0100,1.0144,0.0933,-0.0027,0.0433
21554,-0.0574,-0.0127,1.0154,0.0475,-0.0638,-0.0331
21564,-0.0552,-0.0110,1.0122,-0.0136,-0.0027,-0.0178
21574,-0.0564,-0.0120,1.0056,0.0017,-0.0027,-0.0331
21584,-0.0569,-0.0100,1.0186,-0.0136,-0.0180,-0.0025
21594,-0.0579,-0.0085,1.0105,-0.0289,0.1041,0.0127
21604,-0.0571,-0.0156,1.0112,-0.0441,-0.0180,-0.0941
21614,-0.0596,-0.0125,1.0132,-0.0747,-0.0333,0.1044
21624,-0.0613,-0.0115,1.0146,0.0169,-0.0333,-0.0331
21634,-0.0571,-0.0095,1.0115,-0.0441,-0.0333,0.0280
21644,-0.0579,-0.0107,1.0198,0.0169,-0.0333,0.0433
21654,-0.0530,-0.0127,1.0142,0.0475,-0.0638,-0.0178
21664,-0.0574,-0.0125,1.0061,0.0169,-0.1249,-0.0331
21674,-0.0574,-0.0107,1.0093,-0.0136,-0.1249,-0.0331
21684,-0.0554,-0.0093,1.0105,0.0169,-0.0027,-0.0025
21694,-0.0569,-0.0122,1.0156,0.0627,0.0125,-0.0483
21704,-0.0596,-0.0105,1.0154,0.0169,-0.0333,-0.0941
21714,-0.0588,-0.0110,1.0105,-0.0136,-0.0944,-0.0483
21724,-0.0605,-0.0088,1.0044,-0.0289,-0.0333,-0.0025
21734,-0.0564,-0.0095,1.0181,0.0017,0.0278,-0.0483
21744,-0.0579,-0.0103,1.0171,-0.0747,-0.0638,-0.0025
21754,-0.0549,-0.0110,1.0188,-0.1052,-0.0485,-0.0025
21764,-0.0564,-0.0125,1.0139,-0.0136,-0.0485,-0.0178
21774,-0.0537,-0.0112,1.0134,-0.0747,-0.0485,-0.0178
21784,-0.0620,-0.0161,1.0146,-0.0747,-0.0333,-0.0483
21794,-0.0583,-0.0159,1.0173,-0.0289,-0.0791,-0.0178
21804,-0.0569,-0.0117,1.0198,0.0322,-0.0333,-0.0483
21814,-0.0583,-0.0112,1.0146,0.0017,-0.0180,0.0433
21824,-0.0574,-0.0139,1.0127,0.0169,-0.0638,-0.0178
21834,-0.0586,-0.0154,1.0125,0.0169,-0.0180,-0.0025
21844,-0.0579,-0.0156,1.0105,-0.0136,0.0431,-0.0636
21854,-0.0581,-0.0105,1.0181,0.0475,-0.0027,-0.1247
21864,-0.0593,-0.0129,1.0164,0.0475,-0.1402,-0.0483
21874,-0.0569,-0.0081,1.0105,0.0475,-0.0944,-0.0636
21884,-0.0581,-0.0110,1.0122,0.0169,-0.0638,-0.0178
21894,-0.0593,-0.0100,1.0056,0.0017,-0.0027,0.0738
21904,-0.0559,-0.0139,1.0151,0.0322,-0.0027,0.0585
21914,-0.0588,-0.0107,1.0149,-0.0289,-0.0638,-0.0025
21924,-0.0569,-0.0103,1.0063,-0.0289,-0.1096,-0.0483
21934,-0.0557,-0.0127,1.0159,-0.0441,-0.0333,-0.0789
21944,-0.0571,-0.0156,1.0151,-0.1205,-0.1096,-0.1247
21954,-0.0569,-0.0173,1.0098,-0.0747,-0.0485,-0.0941
21964,-0.0574,-0.0110,1.0112,-0.0136,-0.0027,-0.0636
21974,-0.0569,-0.0146,1.0208,-0.0136,0.0278,-0.0636
21984,-0.0554,-0.0139,1.0166,-0.0136,0.0278,-0.0025
21994,-0.0557,-0.0132,1.0164,0.0780,0.0278,-0.0178
22004,-0.0554,-0.0085,1.0146,0.0475,-0.0027,-0.0483
22014,-0.0564,-0.0095,1.0200,0.0322,0.0278,-0.0636
22024,-0.0569,-0.0125,1.0161,-0.0136,0.0583,-0.0636
22034,-0.0571,-0.0107,1.0149,0.0322,-0.0485,-0.0789
22044,-0.0564,-0.0112,1.0088,0.1238,0.0583,-0.0941
22054,-0.0579,-0.0117,1.0061,0.0475,-0.0180,0.0127
22064,-0.0583,-0.0110,1.0149,-0.0747,-0.1096,-0.0025
22074,-0.0596,-0.0120,1.0144,-0.0289,-0.0791,-0.0331
22084,-0.0579,-0.0107,1.0112,0.0017,-0.0333,-0.0331
22094,-0.0547,-0.0117,1.0127,0.0169,-0.0791,-0.0178
22104,-0.0547,-0.0095,1.0159,-0.0441,-0.0333,0.0280
22114,-0.0525,-0.0107,1.0112,-0.0289,-0.0485,-0.0178
22124,-0.0569,-0.0117,1.0178,-0.1052,-0.0638,0.0127
22134,-0.0547,-0.0176,1.0168,0.0169,-0.0180,0.0738
22144,-0.0540,-0.0105,1.0129,0.0169,0.0125,-0.0178
22154,-0.0547,-0.0122,1.0134,-0.0289,0.0278,-0.0483
22164,-0.0581,-0.0146,1.0105,0.0322,0.0278,-0.0483
22174,-0.0574,-0.0120,1.0195,0.0322,-0.0027,-0.0331
22184,-0.0588,-0.0117,1.0142,-0.0136,-0.0485,-0.0636
22194,-0.0596,-0.0083,1.0149,-0.0441,0.0125,-0.0636
22204,-0.0552,-0.0149,1.0117,-0.0594,-0.0485,-0.0789
22214,-0.0581,-0.0129,1.0125,-0.0594,-0.0485,-0.0483
22224,-0.0542,-0.0095,1.0139,0.0017,-0.0333,-0.0178
22234,-0.0583,-0.0115,1.0154,-0.0594,0.0431,0.0127
22244,-0.0586,-0.0142,1.0159,0.0017,0.0583,-0.0025
22254,-0.0601,-0.0073,1.0107,-0.0136,-0.0180,0.0280
22264,-0.0593,-0.0122,1.0115,0.0475,-0.0027,-0.0025
22274,-0.0608,-0.0125,1.0132,0.0017,0.0431,0.0280
22284,-0.0571,-0.0151,1.0195,0.0322,-0.0485,0.0280
22294,-0.0554,-0.0132,1.0154,-0.0136,-0.0485,0.0127
22304,-0.0554,-0.0098,1.0154,0.0017,-0.0180,0.0127
22314,-0.0554,-0.0137,1.0115,-0.0899,-0.0180,-0.0178
22324,-0.0537,-0.0125,1.0156,-0.0594,-0.0791,-0.0636
22334,-0.0574,-0.0144,1.0149,0.0169,0.0125,0.0433
22344,-0.0576,-0.0161,1.0095,0.0322,0.0583,0.0433
22354,-0.0586,-0.0107,1.0208,-0.0136,0.0278,0.0280
22364,-0.0571,-0.0154,1.0159,0.0017,-0.0485,-0.0178
22374,-0.0596,-0.0161,1.0142,0.0322,-0.0180,0.0280
22384,-0.0566,-0.0159,1.0129,0.0017,0.0278,0.0280
22394,-0.0588,-0.0142,1.0144,0.0322,0.0125,-0.0178
22404,-0.0566,-0.0112,1.0164,0.0627,-0.0027,0.0127
22414,-0.0562,-0.0105,1.0171,0.0627,-0.0791,0.0127
22424,-0.0554,-0.0081,1.0054,0.0780,-0.0180,-0.0483
22434,-0.0542,-0.0083,1.0164,0.0322,-0.0027,-0.0636
22444,-0.0554,-0.0115,1.0078,-0.0289,-0.0027,-0.0941
22454,-0.0579,-0.0054,1.0159,-0.0899,0.0125,0.0280
22464,-0.0593,-0.0117,1.0134,0.0169,-0.0180,-0.0025
22474,-0.0596,-0.0127,1.0161,-0.0441,0.0583,-0.0178
22484,-0.0579,-0.0120,1.0168,-0.0136,0.0583,-0.0025
22494,-0.0559,-0.0105,1.0120,0.0169,0.0278,-0.0025
22504,-0.0601,-0.0132,1.0159,-0.0289,0.0431,-0.0178
22514,-0.0557,-0.0161,1.0110,0.0627,-0.0333,-0.0789
22524,-0.0535,-0.0132,1.0161,-0.0747,0.0125,-0.0178
22534,-0.0559,-0.0098,1.0149,-0.0594,0.0431,-0.0178
22544,-0.0547,-0.0122,1.0012,0.0017,-0.0791,-0.0483
22554,-0.0608,-0.0095,1.0076,0.0475,-0.0485,-0.0025
22564,-0.0574,-0.0161,1.0159,-0.0136,-0.0485,0.0433
22574,-0.0603,-0.0129,1.0081,0.0017,0.0431,0.0433
22584,-0.0601,-0.0088,1.0178,0.0017,-0.0638,0.0127
22594,-0.0564,-0.0100,1.0132,0.0322,-0.0638,-0.0178
22604,-0.0562,-0.0117,1.0137,0.0627,-0.0180,-0.0025
22614,-0.0588,-0.0068,1.0146,0.0017,-0.0180,-0.0178
22624,-0.0610,-0.0112,1.0085,0.0017,-0.0180,-0.0636
22634,-0.0564,-0.0117,1.0139,-0.0594,-0.0027,-0.0789
22644,-0.0598,-0.0144,1.0168,-0.0747,-0.0791,0.0127
22654,-0.0576,-0.0132,1.0166,-0.0136,-0.0944,0.0127
22664,-0.0564,-0.0098,1.0137,0.0017,-0.0638,0.0433
22674,-0.0566,-0.0137,1.0210,-0.0136,-0.0791,-0.0025
22684,-0.0552,-0.0107,1.0137,0.0017,-0.0791,0.0433
22694,-0.0515,-0.0146,1.0173,0.0169,-0.0333,0.0280
22704,-0.0527,-0.0117,1.0215,-0.0289,-0.0485,0.0280
22714,-0.0532,-0.0139,1.0186,0.0322,0.0278,0.0433
22724,-0.0552,-0.0098,1.0166,0.0322,-0.0027,0.0127
22734,-0.0547,-0.0146,1.0127,0.0933,0.0125,0.0127
22744,-0.0554,-0.0115,1.0103,0.0627,0.0431,-0.0025
22754,-0.0601,-0.0100,1.0059,0.0169,-0.0485,-0.0331
22764,-0.0564,-0.0046,1.0164,-0.0136,-0.0638,-0.0025
22774,-0.0566,-0.0115,1.0139,0.0322,-0.0638,-0.0025
22784,-0.0544,-0.0090,1.0168,0.0169,0.0125,-0.0025
22794,-0.0640,-0.0115,1.0122,-0.0136,0.0431,-0.0178
22804,-0.0598,-0.0149,1.0095,0.0322,-0.0027,-0.0331
22814,-0.0571,-0.0137,1.0159,-0.0289,-0.0638,-0.0331
22824,-0.0564,-0.0093,1.0078,-0.0289,-0.0485,0.0127
22834,-0.0601,-0.0117,1.0120,0.0017,-0.0180,-0.0178
22844,-0.0547,-0.0137,1.0173,0.0322,-0.0333,-0.0789
22854,-0.0540,-0.0107,1.0078,0.0322,0.0125,-0.0483
22864,-0.0537,-0.0127,1.0139,-0.0136,-0.0333,0.0280
22874,-0.0527,-0.0129,1.0203,-0.0289,0.0125,-0.0331
22884,-0.0542,-0.0144,1.0093,-0.0136,0.0583,-0.0483
22894,-0.0569,-0.0164,1.0168,0.0169,0.0125,-0.0941
22904,-0.0586,-0.0132,1.0144,0.0322,-0.0180,0.0127
22914,-0.0566,-0.0112,1.0142,0.1238,0.0431,-0.0178
22924,-0.0627,-0.0115,1.0127,0.0780,0.0431,-0.0178
22934,-0.0627,-0.0112,1.0059,0.0475,-0.0791,-0.0331
22944,-0.0586,-0.0110,1.0071,0.0627,-0.1249,0.0127
22954,-0.0547,-0.0125,1.0112,0.0322,-0.0638,-0.0636
22964,-0.0583,-0.0171,1.0161,0.0475,0.0125,0.0280
22974,-0.0530,-0.0105,1.0159,0.0322,0.0431,0.0127
22984,-0.0591,-0.0146,1.0127,-0.0136,0.0125,0.0433
22994,-0.0569,-0.0103,1.0186,-0.0289,0.0889,-0.0636
23004,-0.0581,-0.0144,1.0129,-0.0289,-0.0180,-0.0178
23014,-0.0586,-0.0088,1.0198,0.0322,0.0889,-0.0025
23024,-0.0588,-0.0125,1.0122,0.0780,0.0278,0.0127
23034,-0.0559,-0.0088,1.0156,0.0017,0.0736,-0.0331
23044,-0.0588,-0.0093,1.0171,-0.0441,0.0125,0.0280
23054,-0.0591,-0.0127,1.0198,0.0322,-0.0180,0.1196
23064,-0.0610,-0.0085,1.0156,0.0017,-0.0027,-0.0178
23074,-0.0593,-0.0107,1.0195,-0.0441,-0.0027,-0.0178
23084,-0.0588,-0.0066,1.0166,0.0017,-0.0333,0.0433
23094,-0.0574,-0.0132,1.0144,-0.0136,-0.1249,0.0585
23104,-0.0583,-0.0100,1.0103,0.0017,-0.1402,0.0891
23114,-0.0515,-0.0144,1.0149,-0.0594,-0.0485,-0.0789
23124,-0.0574,-0.0127,1.0200,0.0322,-0.0638,-0.0483
23134,-0.0564,-0.0142,1.0078,-0.0289,0.0125,-0.0483
23144,-0.0527,-0.0125,1.0115,-0.0289,-0.0180,-0.0636
23154,-0.0583,-0.0149,1.0200,-0.0289,0.0125,-0.0636
23164,-0.0588,-0.0164,1.0178,0.0627,-0.0180,-0.0483
23174,-0.0579,-0.0120,1.0073,0.0475,0.0889,-0.0483
23184,-0.0579,-0.0110,1.0164,0.0627,0.0736,-0.0178
23194,-0.0635,-0.0156,1.0164,0.1085,-0.0180,-0.0331
23204,-0.0566,-0.0071,1.0107,0.0933,-0.0485,-0.0178
23214,-0.0605,-0.0083,1.0190,-0.0136,-0.0791,-0.0025
23224,-0.0601,-0.0129,1.0117,-0.0289,-0.0944,-0.0636
23234,-0.0588,-0.0117,1.0161,-0.0594,-0.0791,-0.0483
23244,-0.0530,-0.0110,1.0107,-0.0747,-0.0944,-0.0331
23254,-0.0610,-0.0103,1.0227,-0.0747,-0.0333,-0.0331
23264,-0.0596,-0.0132,1.0144,-0.0136,-0.0485,-0.0025
23274,-0.0554,-0.0144,1.0166,-0.1205,-0.0944,-0.0331
23284,-0.0591,-0.0166,1.0168,-0.0441,-0.0485,0.0280
23294,-0.0603,-0.0122,1.0134,-0.0441,-0.0333,-0.0178
23304,-0.0588,-0.0125,1.0186,-0.0594,0.0278,-0.0789
23314,-0.0537,-0.0151,1.0200,-0.0136,0.0431,-0.0636
23324,-0.0588,-0.0122,1.0164,-0.0289,-0.0027,-0.0331
23334,-0.0591,-0.0127,1.0283,-0.0136,0.0125,0.0280
23344,-0.0605,-0.0125,1.0217,0.0169,-0.0027,0.0738
23354,-0.0571,-0.0132,1.0151,0.0475,-0.0180,-0.0331
23364,-0.0586,-0.0134,1.0098,0.0322,-0.0333,-0.0025
23374,-0.0581,-0.0066,1.0212,-0.0441,0.0583,-0.0331
23384,-0.0574,-0.0093,1.0164,-0.0441,-0.0027,-0.0483
23394,-0.0571,-0.0159,1.0176,0.0017,-0.0944,-0.0025
23404,-0.0596,-0.0129,1.0066,-0.0136,-0.0485,-0.0178
23414,-0.0583,-0.0088,1.0198,-0.0594,0.0125,-0.0178
23424,-0.0625,-0.0120,1.0188,-0.0289,0.0278,0.0280
23434,-0.0623,-0.0129,1.0156,0.0017,-0.1249,-0.0025
23444,-0.0591,-0.0112,1.0088,-0.0136,-0.0638,-0.0331
23454,-0.0615,-0.0127,1.0144,0.0017,-0.0485,-0.0331
23464,-0.0549,-0.0100,1.0122,-0.0289,-0.0791,-0.0025
23474,-0.0583,-0.0122,1.0117,0.0017,-0.0333,-0.0025
23484,-0.0562,-0.0134,1.0122,0.0475,0.0278,0.0127
23494,-0.0564,-0.0127,1.0151,-0.0136,-0.0638,0.0127
23504,-0.0547,-0.0098,1.0156,-0.0136,0.0125,0.0280
23514,-0.0547,-0.0073,1.0159,0.0475,0.0125,-0.0483
23524,-0.0605,-0.0137,1.0105,0.0627,0.0278,0.0127
23534,-0.0552,-0.0168,1.0264,0.0169,0.0278,-0.0331
23544,-0.0603,-0.0110,1.0159,0.0475,-0.0333,-0.0178
23554,-0.0593,-0.0154,1.0178,0.0475,-0.1096,0.0127
23564,-0.0579,-0.0127,1.0156,-0.0136,-0.0791,0.0127
23574,-0.0586,-0.0132,1.0071,0.0322,-0.0180,0.0280
23584,-0.0586,-0.0142,1.0151,-0.0747,-0.0027,0.0127
23594,-0.0593,-0.0085,1.0164,-0.1052,-0.0180,-0.0331
23604,-0.0525,-0.0095,1.0171,-0.0289,-0.0791,-0.0025
23614,-0.0593,-0.0098,1.0073,-0.0594,-0.0485,0.0280
23624,-0.0564,-0.0132,1.0132,-0.0136,-0.0333,0.0127
23634,-0.0537,-0.0151,1.0203,-0.1205,-0.0333,-0.0483
23644,-0.0549,-0.0100,1.0215,-0.0441,0.0125,0.0127
23654,-0.0583,-0.0085,1.0193,-0.1205,-0.0180,-0.0789
23664,-0.0566,-0.0115,1.0117,-0.0136,-0.0333,-0.0789
23674,-0.0552,-0.0120,1.0190,0.0017,-0.0791,-0.0483
23684,-0.0588,-0.0146,1.0178,0.0169,-0.0485,-0.0636
23694,-0.0593,-0.0085,1.0139,0.0322,-0.0485,-0.0941
23704,-0.0623,-0.0093,1.0190,-0.0441,-0.0180,-0.0636
23714,-0.0654,-0.0098,1.0217,0.0017,0.0125,-0.0483
23724,-0.0583,-0.0056,1.0156,0.0017,-0.0333,-0.0331
23734,-0.0540,-0.0132,1.0093,0.0475,-0.1096,-0.0789
23744,-0.0591,-0.0100,1.0110,-0.0441,-0.1096,-0.0636
23754,-0.0569,-0.0107,1.0117,-0.0136,-0.0333,-0.0025
23764,-0.0562,-0.0125,1.0208,-0.0289,-0.0027,0.0280
23774,-0.0552,-0.0122,1.0149,0.0017,-0.0027,-0.0025
23784,-0.0591,-0.0137,1.0149,-0.0441,0.0278,-0.0025
23794,-0.0562,-0.0117,1.0146,-0.0441,-0.0333,-0.0483
23804,-0.0557,-0.0144,1.0146,-0.0594,0.0583,-0.0789
23814,-0.0547,-0.0093,1.0161,0.0780,0.1041,-0.0178
23824,-0.0593,-0.0090,1.0129,0.0933,0.0736,-0.0025
23834,-0.0576,-0.0134,1.0161,0.0933,-0.0333,0.0127
23844,-0.0552,-0.0117,1.0188,0.0017,-0.0485,-0.0178
23854,-0.0605,-0.0125,1.0139,-0.0747,-0.0638,0.0280
23864,-0.0605,-0.0134,1.0127,0.0017,-0.0333,0.0585
23874,-0.0598,-0.0085,1.0078,-0.0289,-0.0638,0.0127
23884,-0.0571,-0.0098,1.0151,0.0322,-0.0333,-0.0483
23894,-0.0583,-0.0132,1.0154,0.0627,-0.0180,0.0127
23904,-0.0535,-0.0103,1.0190,-0.0441,-0.0027,-0.1094
23914,-0.0549,-0.0105,1.0076,-0.0899,-0.0333,-0.0483
23924,-0.0564,-0.0107,1.0181,0.0475,-0.0333,-0.0483
23934,-0.0571,-0.0105,1.0134,-0.0441,-0.0333,-0.0025
23944,-0.0596,-0.0110,1.0103,-0.0289,-0.0333,0.0280
23954,-0.0566,-0.0090,1.0151,0.0322,-0.0791,-0.0025
23964,-0.0564,-0.0098,1.0110,-0.0441,-0.0180,0.0433
23974,-0.0535,-0.0107,1.0198,0.0169,0.0125,-0.0025
23984,-0.0571,-0.0139,1.0134,-0.0594,0.0431,-0.0025
23994,-0.0562,-0.0127,1.0203,-0.0594,0.0736,-0.1247
24004,-0.0588,-0.0085,1.0088,0.0322,-0.0485,-0.1247
24014,-0.0549,-0.0117,1.0178,0.0933,-0.0333,-0.0178
24024,-0.0613,-0.0120,1.0129,-0.0289,-0.0180,0.0585
24034,-0.0571,-0.0110,1.0112,-0.0594,-0.0180,-0.0025
24044,-0.0601,-0.0095,1.0103,0.0475,-0.0944,0.0280
24054,-0.0532,-0.0100,1.0154,0.0475,-0.1096,0.0433
24064,-0.0564,-0.0137,1.0132,0.0475,-0.1096,-0.0178
24074,-0.0547,-0.0127,1.0176,-0.0289,-0.0791,-0.0636
24084,-0.0610,-0.0117,1.0103,-0.0136,-0.0485,-0.0789
24094,-0.0588,-0.0107,1.0154,-0.0441,-0.0638,0.0280
24104,-0.0540,-0.0122,1.0090,-0.0289,-0.1096,0.0280
24114,-0.0530,-0.0120,1.0066,-0.0289,-0.0791,0.0127
24124,-0.0503,-0.0098,1.0134,-0.0441,-0.0027,0.0738
24134,-0.0537,-0.0105,1.0161,-0.0594,0.0431,-0.0483
24144,-0.0603,-0.0132,1.0122,0.0017,0.0431,-0.0636
24154,-0.0559,-0.0093,1.0098,0.0475,0.0278,0.0127
24164,-0.0620,-0.0129,1.0142,0.0017,0.0431,0.0433
24174,-0.0637,-0.0122,1.0159,-0.0594,0.1041,-0.0789
24184,-0.0583,-0.0137,1.0161,-0.0136,0.1041,0.0127
24194,-0.0618,-0.0127,1.0156,0.0475,0.0583,0.0127
24204,-0.0549,-0.0134,1.0156,0.0627,-0.0333,0.0280
24214,-0.0552,-0.0107,1.0139,0.0475,0.0278,-0.0483
24224,-0.0557,-0.0125,1.0095,0.0017,-0.0485,0.0433
24234,-0.0559,-0.0120,1.0151,0.0475,-0.0485,-0.0025
24244,-0.0557,-0.0115,1.0110,0.0322,-0.0027,-0.0178
24254,-0.0542,-0.0107,1.0105,0.0017,0.0278,-0.0178
24264,-0.0603,-0.0120,1.0144,0.0169,-0.0791,-0.0331
24274,-0.0579,-0.0100,1.0181,-0.0136,0.0278,-0.0025
24284,-0.0566,-0.0132,1.0125,-0.0136,0.0125,-0.0025
24294,-0.0591,-0.0134,1.0056,-0.0594,0.1347,-0.0483
24304,-0.0591,-0.0129,1.0142,-0.0289,0.0889,-0.1399
24314,-0.0605,-0.0100,1.0168,-0.0289,-0.0027,-0.0331
24324,-0.0637,-0.0112,1.0042,0.0322,-0.0638,-0.0941
24334,-0.0583,-0.0151,1.0188,0.0475,0.0583,0.0127
24344,-0.0659,-0.0134,1.0095,-0.0136,0.0125,-0.0483
24354,-0.0620,-0.0100,1.0105,0.0627,-0.0027,-0.0483
24364,-0.0520,-0.0098,1.0049,-0.0289,-0.1096,-0.0178
24374,-0.0544,-0.0105,1.0154,0.0475,-0.1402,-0.0483
24384,-0.0493,-0.0110,1.0149,-0.0136,-0.0333,-0.0331
24394,-0.0562,-0.0110,1.0120,-0.0136,0.0278,-0.0331
24404,-0.0544,-0.0100,1.0127,-0.0441,-0.0638,-0.0941
24414,-0.0615,-0.0137,1.0134,-0.0747,-0.1096,-0.0941
24424,-0.0601,-0.0112,1.0132,-0.0441,-0.0333,-0.0941
24434,-0.0586,-0.0134,1.0127,-0.0136,-0.0485,-0.0025
24444,-0.0530,-0.0134,1.0156,-0.0289,-0.0638,-0.0025
24454,-0.0515,-0.0085,1.0103,-0.0136,-0.0180,0.0738
24464,-0.0576,-0.0095,1.0100,0.0627,-0.0333,0.0280
24474,-0.0540,-0.0112,1.0095,-0.0136,-0.0791,0.0127
24484,-0.0569,-0.0132,1.0178,0.0017,-0.0944,0.0585
24494,-0.0593,-0.0100,1.0173,-0.0441,-0.0333,0.0127
24504,-0.0576,-0.0137,1.0134,-0.0289,-0.0485,0.0891
24514,-0.0581,-0.0156,1.0208,0.0169,-0.0333,-0.0331
24524,-0.0581,-0.0127,1.0151,0.0322,-0.0485,-0.0025
24534,-0.0537,-0.0132,1.0093,0.0322,-0.0485,0.0127
24544,-0.0547,-0.0105,1.0139,0.0322,0.0736,-0.0331
24554,-0.0557,-0.0134,1.0176,0.0627,-0.0027,-0.0025
24564,-0.0554,-0.0122,1.0073,0.0780,-0.0027,0.0127
24574,-0.0596,-0.0083,1.0142,-0.0136,0.0125,0.0738
24584,-0.0569,-0.0083,1.0161,-0.0136,-0.0180,0.0280
24594,-0.0605,-0.0105,1.0078,-0.0289,-0.0027,-0.0025
24604,-0.0591,-0.0100,1.0110,-0.0289,0.0125,-0.0025
24614,-0.0581,-0.0122,1.0125,-0.0594,-0.0485,-0.0178
24624,-0.0586,-0.0166,1.0127,-0.0441,0.0431,0.0280
24634,-0.0559,-0.0073,1.0151,0.0322,0.0736,-0.0025
24644,-0.0583,-0.0100,1.0171,-0.0136,-0.0333,0.0127
24654,-0.0593,-0.0120,1.0164,0.0475,-0.0027,0.0280
24664,-0.0588,-0.0100,1.0117,0.0780,-0.0485,0.0127
24674,-0.0576,-0.0095,1.0117,0.0780,-0.0638,-0.0483
24684,-0.0579,-0.0129,1.0139,-0.0594,-0.0791,-0.0178
24694,-0.0559,-0.0132,1.0183,-0.0594,-0.0944,-0.0178
24704,-0.0527,-0.0112,1.0117,-0.0899,-0.0027,-0.0178
24714,-0.0547,-0.0117,1.0212,-0.0136,-0.0333,-0.0178
24724,-0.0581,-0.0186,1.0215,-0.0441,-0.0333,-0.0331
24734,-0.0581,-0.0176,1.0139,0.0322,-0.0027,0.0127
24744,-0.0603,-0.0139,1.0198,-0.0441,-0.0333,-0.0789
24754,-0.0532,-0.0190,1.0154,-0.0289,0.0125,0.0127
24764,-0.0608,-0.0146,1.0193,0.0780,-0.0027,-0.0331
24774,-0.0527,-0.0112,1.0168,0.0322,-0.0485,-0.0483
24784,-0.0542,-0.0085,1.0054,0.0475,-0.0027,-0.0178
24794,-0.0613,-0.0090,1.0129,0.0475,-0.0180,-0.0636
24804,-0.0586,-0.0098,1.0181,0.0017,0.0125,-0.0331
24814,-0.0623,-0.0071,1.0173,-0.0594,-0.0180,-0.0178
24824,-0.0586,-0.0107,1.0232,-0.0136,-0.0485,-0.0178
24834,-0.0596,-0.0085,1.0139,-0.0289,-0.0180,-0.0789
24844,-0.0581,-0.0115,1.0164,-0.1357,-0.0027,-0.0331
24854,-0.0574,-0.0144,1.0217,-0.0747,0.0125,-0.0025
24864,-0.0598,-0.0100,1.0227,-0.0136,0.0125,-0.0178
24874,-0.0588,-0.0107,1.0071,0.0322,-0.0638,0.1044
24884,-0.0540,-0.0139,1.0112,-0.0594,0.0125,0.0280
24894,-0.0540,-0.0149,1.0242,-0.0289,-0.0027,-0.0178
24904,-0.0544,-0.0137,1.0105,0.0322,-0.0791,0.0127
24914,-0.0586,-0.0137,1.0151,-0.0441,-0.0027,-0.0178
24924,-0.0564,-0.0139,1.0171,-0.0594,0.0583,-0.0483
24934,-0.0593,-0.0151,1.0164,-0.1052,0.0125,-0.0483
24944,-0.0596,-0.0122,1.0122,0.0322,-0.0485,-0.0483
24954,-0.0603,-0.0137,1.0059,-0.0136,0.0431,0.0127
24964,-0.0552,-0.0093,1.0156,-0.0594,0.0125,-0.0178
24974,-0.0608,-0.0090,1.0198,-0.0136,0.0278,0.0127
24984,-0.0522,-0.0105,1.0112,0.0933,-0.0180,-0.0025
24994,-0.0576,-0.0105,1.0098,0.0322,-0.0638,-0.0941
25004,-0.0574,-0.0144,1.0173,-0.0136,-0.0333,-0.0789
25014,-0.0559,-0.0095,1.0098,-0.0136,0.0125,-0.1094
25024,-0.0598,-0.0073,1.0122,0.0169,-0.0485,0.0280
25034,-0.0562,-0.0139,1.0144,-0.0136,-0.0027,0.0738
25044,-0.0576,-0.0095,1.0127,-0.0289,-0.0485,0.0585
25054,-0.0547,-0.0115,1.0127,-0.0594,-0.0638,-0.0025
25064,-0.0564,-0.0105,1.0127,0.0169,-0.0485,0.0433
25074,-0.0540,-0.0151,1.0100,0.0627,-0.0180,-0.0483
25084,-0.0562,-0.0149,1.0205,0.0322,0.0889,-0.1094
25094,-0.0586,-0.0159,1.0164,0.0169,0.0583,-0.0636
25104,-0.0579,-0.0137,1.0142,0.1085,-0.0027,-0.0636
25114,-0.0627,-0.0088,1.0117,0.1544,-0.0180,-0.0789
25124,-0.0603,-0.0105,1.0056,0.0780,-0.0333,-0.0636
25134,-0.0554,-0.0071,1.0166,0.0322,0.0889,0.0585
25144,-0.0522,-0.0093,1.0144,0.0322,0.0125,-0.0331
25154,-0.0562,-0.0059,1.0117,0.0322,0.0583,-0.0789
25164,-0.0610,-0.0107,1.0269,0.0169,0.0583,-0.0636
25174,-0.0608,-0.0117,1.0125,-0.0441,-0.0027,-0.0483
25184,-0.0596,-0.0100,1.0103,0.0169,-0.0027,0.0433
25194,-0.0593,-0.0061,1.0142,-0.0441,0.0125,0.0127
25204,-0.0574,-0.0132,1.0056,-0.0441,0.0125,-0.0636
25214,-0.0552,-0.0098,1.0110,-0.0289,-0.0027,-0.0789
25224,-0.0522,-0.0139,1.0146,-0.0289,-0.0944,-0.0178
25234,-0.0552,-0.0129,1.0161,-0.0594,-0.0333,-0.0178
25244,-0.0537,-0.0190,1.0173,-0.1052,-0.0638,-0.0636
25254,-0.0569,-0.0178,1.0203,0.0017,-0.0638,-0.0483
25264,-0.0574,-0.0198,1.0190,-0.0136,0.0431,-0.0178
25274,-0.0576,-0.0159,1.0178,0.0475,-0.0027,0.0585
25284,-0.0581,-0.0146,1.0200,0.1085,-0.0027,0.0585
25294,-0.0576,-0.0120,1.0056,0.0475,0.0736,0.0280
25304,-0.0542,-0.0059,1.0088,0.0475,0.0583,-0.0636
25314,-0.0552,-0.0068,1.0173,0.0475,0.0583,-0.0636
25324,-0.0576,-0.0115,1.0222,0.0169,-0.0027,-0.0483
25334,-0.0593,-0.0085,1.0122,-0.0136,-0.0485,-0.0331
25344,-0.0581,-0.0088,1.0149,-0.1052,-0.0180,-0.0483
25354,-0.0576,-0.0088,1.0164,-0.0899,0.0125,-0.0636
25364,-0.0576,-0.0110,1.0127,-0.1052,-0.0027,-0.0331
25374,-0.0615,-0.0103,1.0188,-0.1205,-0.0180,-0.0636
25384,-0.0598,-0.0117,1.0186,-0.1052,-0.0180,0.0585
25394,-0.0522,-0.0164,1.0234,-0.0747,0.0583,0.0891
25404,-0.0535,-0.0125,1.0142,-0.0136,-0.0180,0.0738
25414,-0.0544,-0.0107,1.0181,-0.0441,-0.0333,0.0127
25424,-0.0583,-0.0188,1.0149,0.0169,0.0125,-0.0483
25434,-0.0610,-0.0120,1.0178,0.0017,-0.0180,0.0280
25444,-0.0576,-0.0151,1.0115,-0.0289,0.0278,-0.0178
25454,-0.0564,-0.0112,1.0056,-0.0136,-0.0485,-0.0331
25464,-0.0544,-0.0120,1.0122,0.0169,-0.0333,-0.0331
25474,-0.0544,-0.0078,1.0103,-0.0441,0.0125,-0.0178
25484,-0.0540,-0.0090,1.0125,0.0322,-0.0638,0.0433
25494,-0.0571,-0.0125,0.9983,0.0322,-0.0791,-0.0178
25504,-0.0527,-0.0110,0.9956,-0.0289,-0.0180,0.0127
25514,-0.0601,-0.0117,1.0120,-0.0289,-0.0485,0.0280
25524,-0.0645,-0.0122,1.0166,0.0017,-0.0638,-0.0178
25534,-0.0583,-0.0112,1.0161,0.0933,-0.1249,0.0433
25544,-0.0581,-0.0137,1.0078,-0.0136,-0.1096,0.1196
25554,-0.0588,-0.0129,1.0164,-0.0441,-0.0638,0.1044
25564,-0.0579,-0.0039,0.9983,-0.0136,-0.1249,0.0433
25574,-0.0518,-0.0063,1.0024,-0.0594,-0.0333,-0.0178
25584,-0.0562,-0.0117,1.0068,-0.0594,-0.0180,-0.0331
25594,-0.0547,-0.0129,1.0105,-0.1052,0.0278,-0.0636
25604,-0.0571,-0.0095,1.0208,-0.0289,0.0278,-0.1094
25614,-0.0540,-0.0154,1.0032,-0.0441,0.0278,-0.0483
25624,-0.0547,-0.0193,1.0073,0.0627,-0.0027,-0.0331
25634,-0.0542,-0.0139,0.9998,0.0933,-0.0180,-0.0331
25644,-0.0579,-0.0068,1.0208,0.0475,-0.0027,-0.0941
25654,-0.0618,-0.0095,1.0273,0.0017,0.0736,-0.0483
25664,-0.0598,-0.0125,1.0205,0.0017,0.0736,-0.0025
25674,-0.0635,-0.0085,1.0159,0.0169,0.0278,-0.0025
25684,-0.0615,-0.0085,1.0161,0.0169,0.0431,-0.0331
25694,-0.0608,-0.0081,1.0146,0.0627,-0.0485,0.0280
25704,-0.0625,-0.0081,1.0085,0.0475,-0.0180,0.0585
25714,-0.0601,-0.0112,1.0068,0.0475,-0.0638,0.0891
25724,-0.0530,-0.0103,1.0134,0.0017,-0.0944,-0.0178
25734,-0.0549,-0.0095,1.0134,-0.0747,-0.0333,0.0127
25744,-0.0508,-0.0137,1.0115,-0.0289,-0.0333,0.0280
25754,-0.0562,-0.0115,1.0186,-0.0899,0.0583,-0.0636
25764,-0.0544,-0.0137,1.0190,-0.0747,0.0583,-0.0789
25774,-0.0598,-0.0139,1.0142,0.0169,0.0125,-0.0483
25784,-0.0571,-0.0103,1.0112,-0.0594,-0.0333,-0.0789
25794,-0.0598,-0.0107,1.0132,-0.0136,0.0583,-0.0789
25804,-0.0554,-0.0142,1.0200,-0.0136,0.0278,-0.0636
25814,-0.0586,-0.0129,1.0154,-0.0136,-0.0027,-0.0178
25824,-0.0571,-0.0115,1.0120,0.0169,-0.0180,-0.0636
25834,-0.0591,-0.0063,1.0095,0.0322,-0.0180,0.0127
25844,-0.0581,-0.0090,1.0132,-0.0289,-0.0791,0.0280
25854,-0.0583,-0.0110,1.0166,-0.0289,-0.0333,0.0280
25864,-0.0564,-0.0161,1.0120,-0.0289,0.0125,-0.0178
25874,-0.0576,-0.0107,1.0183,-0.0136,-0.0027,-0.0178
25884,-0.0564,-0.0122,1.0134,-0.0441,-0.0485,-0.0636
25894,-0.0583,-0.0137,1.0095,-0.0136,-0.0485,-0.0483
25904,-0.0554,-0.0112,1.0198,-0.0594,0.0583,-0.0636
25914,-0.0574,-0.0159,1.0176,-0.0594,0.0278,-0.0025
25924,-0.0569,-0.0100,1.0171,-0.0594,-0.0944,-0.0331
25934,-0.0603,-0.0095,1.0176,0.0017,-0.0791,-0.0483
25944,-0.0598,-0.0076,1.0171,-0.0136,-0.0333,-0.0483
25954,-0.0569,-0.0112,1.0156,-0.0136,0.0125,-0.0636
25964,-0.0596,-0.0095,1.0146,-0.0289,-0.0333,-0.0483
25974,-0.0610,-0.0144,1.0151,0.0017,-0.1096,-0.0483
25984,-0.0620,-0.0132,1.0166,-0.0747,-0.0333,-0.1094
25994,-0.0552,-0.0159,1.0125,-0.0594,-0.0944,-0.0636
26004,-0.0574,-0.0110,1.0161,0.0169,-0.0485,-0.0331
26014,-0.0542,-0.0095,1.0149,0.0475,-0.0333,0.0433
26024,-0.0581,-0.0081,1.0110,0.0017,-0.0027,-0.0331
26034,-0.0557,-0.0085,1.0127,0.0017,-0.0485,0.0280
26044,-0.0581,-0.0127,1.0095,-0.0747,0.0278,0.1196
26054,-0.0603,-0.0093,1.0149,-0.0594,0.0583,0.0127
26064,-0.0574,-0.0103,1.0186,-0.0441,0.0736,0.0433
26074,-0.0627,-0.0134,1.0149,-0.0136,-0.0180,-0.0025
26084,-0.0505,-0.0132,1.0151,-0.0289,-0.0180,-0.0178
26094,-0.0532,-0.0120,1.0093,0.0627,-0.0638,-0.0178
26104,-0.0544,-0.0103,1.0137,0.0017,-0.0027,-0.0636
26114,-0.0537,-0.0127,1.0146,-0.0136,-0.0180,0.0433
26124,-0.0544,-0.0105,1.0161,-0.0594,-0.0333,0.0127
26134,-0.0566,-0.0142,1.0098,0.0017,0.0431,-0.0178
26144,-0.0569,-0.0132,1.0120,0.0169,0.0431,-0.0331
26154,-0.0569,-0.0142,1.0056,0.0322,-0.0485,-0.0025
26164,-0.0562,-0.0117,1.0090,0.0169,-0.0027,0.0127
26174,-0.0571,-0.0127,1.0178,0.0322,0.0583,-0.0178
26184,-0.0522,-0.0105,1.0032,0.0627,-0.0638,-0.0025
26194,-0.0588,-0.0068,1.0105,0.0627,0.0278,-0.0483
26204,-0.0623,-0.0049,1.0132,0.0017,-0.0944,-0.0636
26214,-0.0603,-0.0073,1.0112,0.1238,-0.0180,-0.0025
26224,-0.0549,-0.0059,1.0112,0.0017,-0.0333,0.0433
26234,-0.0552,-0.0095,1.0110,0.0169,-0.0027,0.0280
26244,-0.0564,-0.0098,1.0100,0.0169,-0.0791,-0.0331
26254,-0.0559,-0.0122,1.0217,-0.0441,-0.0027,-0.0178
26264,-0.0581,-0.0142,1.0183,-0.0136,-0.0180,-0.0178
26274,-0.0549,-0.0142,1.0171,-0.0594,0.0278,-0.0483
26284,-0.0544,-0.0107,1.0232,-0.0441,-0.0180,-0.0636
26294,-0.0549,-0.0171,1.0088,-0.0136,0.0125,0.0280
26304,-0.0540,-0.0129,1.0127,0.0017,-0.0333,0.0280
26314,-0.0557,-0.0110,1.0134,-0.0136,-0.0027,-0.0025
26324,-0.0540,-0.0139,1.0066,-0.0747,-0.0027,0.0127
26334,-0.0583,-0.0081,1.0154,0.0017,0.0278,-0.0789
26344,-0.0586,-0.0127,1.0120,-0.0289,0.0125,-0.0636
26354,-0.0613,-0.0081,1.0173,-0.0289,-0.0333,-0.0483
26364,-0.0627,-0.0078,1.0056,-0.0441,0.0125,-0.0483
26374,-0.0591,-0.0081,1.0154,-0.0441,0.0583,0.0585
26384,-0.0576,-0.0105,1.0159,0.0017,-0.0027,0.0585
26394,-0.0598,-0.0105,1.0125,-0.0441,-0.0180,0.0127
26404,-0.0562,-0.0093,1.0098,-0.0899,-0.0638,-0.0025
26414,-0.0586,-0.0142,1.0134,-0.0747,-0.0791,-0.0331
26424,-0.0537,-0.0110,1.0181,-0.0441,-0.0485,-0.1094
26434,-0.0552,-0.0137,1.0193,-0.0136,0.0125,-0.0941
26444,-0.0586,-0.0161,1.0168,-0.0441,-0.0027,-0.0483
26454,-0.0527,-0.0095,1.0134,0.0017,-0.0638,-0.0178
26464,-0.0510,-0.0125,1.0217,-0.0136,-0.0180,-0.0331
26474,-0.0535,-0.0105,1.0142,0.0017,-0.0027,-0.0483
26484,-0.0530,-0.0142,1.0266,0.0475,-0.0791,-0.0483
26494,-0.0581,-0.0117,1.0161,0.0780,0.0125,-0.0789
26504,-0.0601,-0.0105,1.0132,0.1238,-0.0485,-0.0331
26514,-0.0618,-0.0146,1.0061,0.1085,0.0278,-0.0178
26524,-0.0605,-0.0093,1.0081,0.0780,-0.0638,-0.0178
26534,-0.0613,-0.0088,1.0212,0.0780,-0.0485,0.0280
26544,-0.0586,-0.0100,1.0195,0.0322,-0.0638,-0.0331
26554,-0.0576,-0.0103,1.0159,0.0627,-0.0485,-0.0789
26564,-0.0598,-0.0090,1.0122,-0.0136,-0.0791,-0.0483
26574,-0.0615,-0.0093,1.0188,0.0475,-0.0333,-0.0483
26584,-0.0586,-0.0110,1.0134,-0.0594,-0.0791,-0.0483
26594,-0.0547,-0.0112,1.0178,-0.0441,-0.1096,-0.0178
26604,-0.0518,-0.0083,1.0190,-0.0899,-0.0333,0.0280
26614,-0.0540,-0.0107,1.0173,-0.0594,-0.1249,0.0127
26624,-0.0515,-0.0081,1.0144,0.0169,-0.1096,0.0280
26634,-0.0554,-0.0095,1.0139,0.0169,-0.0944,-0.0331
26644,-0.0569,-0.0142,1.0164,-0.0289,0.0125,-0.0636
26654,-0.0603,-0.0095,1.0146,0.0322,-0.0180,-0.0025
26664,-0.0591,-0.0151,1.0107,0.0322,0.0125,-0.0025
26674,-0.0583,-0.0139,1.0088,-0.0289,-0.0333,-0.0483
26684,-0.0571,-0.0122,1.0134,0.0322,-0.0027,-0.0483
26694,-0.0579,-0.0122,1.0107,0.0933,-0.0180,-0.0025
26704,-0.0574,-0.0098,1.0181,0.0322,0.0736,0.0280
26714,-0.0583,-0.0088,1.0151,0.0780,-0.0180,-0.0483
26724,-0.0576,-0.0103,1.0115,0.0169,0.0431,-0.0483
26734,-0.0559,-0.0098,1.0125,0.0475,-0.0027,-0.0636
26744,-0.0586,-0.0122,1.0115,0.0475,-0.0944,-0.0331
26754,-0.0596,-0.0090,1.0127,0.0169,0.0431,-0.0178
26764,-0.0571,-0.0076,1.0144,0.0169,0.0278,0.0127
26774,-0.0615,-0.0088,1.0142,0.0169,0.0583,-0.0483
26784,-0.0603,-0.0129,1.0166,-0.0899,-0.0180,0.0127
26794,-0.0576,-0.0112,1.0144,-0.0899,-0.0485,-0.0483
26804,-0.0559,-0.0176,1.0098,-0.0289,-0.0180,-0.0636
26814,-0.0581,-0.0137,1.0188,-0.0289,-0.0180,-0.0483
26824,-0.0581,-0.0100,1.0081,0.0627,-0.0180,-0.0483
26834,-0.0603,-0.0120,1.0105,-0.0441,-0.0180,-0.0178
26844,-0.0562,-0.0117,1.0127,0.0322,-0.0485,-0.0331
26854,-0.0593,-0.0137,1.0154,0.0627,-0.0333,-0.0636
26864,-0.0557,-0.0105,1.0171,0.1085,-0.0027,0.0127
26874,-0.0557,-0.0122,1.0166,0.0017,0.0125,-0.0331
26884,-0.0566,-0.0093,1.0149,0.0017,0.0431,-0.0331
26894,-0.0571,-0.0088,1.0122,-0.0136,-0.0791,-0.0331
26904,-0.0591,-0.0103,1.0093,0.0322,-0.0333,-0.0331
26914,-0.0535,-0.0095,1.0168,-0.0289,-0.0180,-0.0483
26924,-0.0601,-0.0090,1.0090,-0.0136,0.0125,0.0127
26934,-0.0564,-0.0066,1.0134,-0.0594,0.0278,-0.0178
26944,-0.0549,-0.0110,1.0083,-0.0441,-0.0485,-0.0331
26954,-0.0576,-0.0139,1.0190,-0.0747,0.0125,-0.0331
26964,-0.0527,-0.0142,1.0134,-0.0441,-0.0027,-0.0636
26974,-0.0562,-0.0171,1.0186,0.0322,-0.0791,-0.0331
26984,-0.0576,-0.0156,1.0156,-0.0136,-0.0333,0.0280
26994,-0.0554,-0.0125,1.0210,0.0017,-0.0333,0.0738
27004,-0.0554,-0.0154,1.0200,0.0169,0.0278,-0.0331
27014,-0.0547,-0.0132,1.0161,0.0933,0.0278,0.0127
27024,-0.0544,-0.0112,1.0054,0.0780,-0.0027,-0.1094
27034,-0.0557,-0.0105,1.0085,0.0627,-0.0485,-0.0025
27044,-0.0564,-0.0115,1.0156,-0.0136,0.0125,-0.0025
27054,-0.0576,-0.0120,1.0171,0.0169,-0.0485,-0.0331
27064,-0.0566,-0.0085,1.0112,0.0627,0.0125,-0.0178
27074,-0.0542,-0.0125,1.0193,0.0017,-0.0638,-0.0025
27084,-0.0596,-0.0103,1.0139,0.0627,-0.0180,-0.0941
27094,-0.0552,-0.0129,1.0142,0.0169,-0.0027,0.0433
27104,-0.0557,-0.0120,1.0161,-0.0441,-0.0180,0.0433
27114,-0.0549,-0.0103,1.0134,-0.0594,0.0278,0.0280
27124,-0.0554,-0.0122,1.0117,0.0017,-0.0791,-0.0178
27134,-0.0547,-0.0083,1.0188,-0.0441,-0.0333,-0.0483
27144,-0.0542,-0.0164,1.0115,0.0017,-0.0333,-0.1247
27154,-0.0549,-0.0107,1.0156,-0.0136,-0.0027,-0.0483
27164,-0.0571,-0.0139,1.0139,0.0017,-0.0333,-0.0178
27174,-0.0581,-0.0134,1.0183,0.0017,-0.0485,-0.0025
27184,-0.0564,-0.0137,1.0144,0.0017,-0.0180,-0.0636
27194,-0.0591,-0.0171,1.0195,-0.0136,-0.0180,-0.0178
27204,-0.0579,-0.0125,1.0103,0.0322,0.0125,-0.0331
27214,-0.0557,-0.0127,1.0112,-0.0136,-0.0485,-0.0331
27224,-0.0630,-0.0122,1.0115,0.0017,-0.0333,-0.0789
27234,-0.0540,-0.0076,1.0146,-0.0136,-0.0485,-0.0483
27244,-0.0583,-0.0134,1.0112,0.0933,0.0431,-0.0331
