timestamp_ms,ax,ay,az,gx,gy,gz
3964,-1.0042,0.0112,0.0293,0.0015,-0.0635,0.0140
3974,-1.0074,0.0085,0.0264,-0.0595,0.0281,0.0292
3984,-1.0109,0.0063,0.0268,-0.0748,0.0281,0.0292
3994,-1.0077,0.0085,0.0285,-0.0137,0.0281,-0.0776
4004,-1.0096,0.0021,0.0235,0.0168,-0.0788,-0.0013
4014,-1.0094,0.0104,0.0266,0.0779,-0.0635,0.0140
4024,-1.0069,0.0082,0.0314,0.0779,0.0434,-0.0013
4034,-1.0128,0.0121,0.0225,0.0473,0.0281,0.0750
4044,-1.0086,0.0102,0.0244,-0.0137,0.0892,-0.0318
4054,-1.0113,0.0102,0.0297,-0.0137,0.0128,-0.0471
4064,-1.0082,0.0104,0.0268,-0.0748,-0.0177,-0.0624
4074,-1.0096,0.0038,0.0264,0.0168,-0.0940,-0.0929
4084,-1.0074,0.0019,0.0264,0.0015,-0.0482,-0.1540
4094,-1.0077,0.0033,0.0256,-0.0137,0.0128,-0.0471
4104,-1.0077,0.0092,0.0283,-0.0290,0.0434,-0.0013
4114,-1.0126,0.0099,0.0334,0.0321,0.0586,-0.0013
4124,-1.0072,0.0107,0.0271,0.0168,-0.0177,-0.0013
4134,-1.0018,0.0041,0.0300,-0.0290,0.0128,-0.0013
4144,-1.0086,0.0063,0.0244,0.0168,0.0586,0.0140
4154,-1.0113,0.0080,0.0232,-0.0290,0.0586,-0.0471
4164,-1.0082,0.0058,0.0254,0.0168,0.1044,0.0292
4174,-1.0077,0.0070,0.0268,0.0931,0.0586,0.0140
4184,-1.0062,0.0099,0.0249,0.0321,0.0434,0.0140
4194,-1.0077,0.0134,0.0251,0.0626,0.0586,0.0140
4204,-1.0082,0.0092,0.0271,0.0626,0.0434,0.0750
4214,-1.0082,0.0131,0.0266,0.0168,0.0892,0.1208
4224,-1.0101,0.0090,0.0280,-0.0290,0.0434,0.0140
4234,-1.0069,0.0055,0.0271,0.0473,-0.0482,-0.0624
4244,-1.0086,0.0077,0.0314,0.0473,-0.0788,-0.0471
4254,-1.0089,0.0104,0.0293,-0.0290,-0.0635,-0.0166
4264,-1.0074,0.0075,0.0227,-0.0290,-0.0482,-0.0013
4274,-1.0084,0.0077,0.0264,0.0015,-0.0635,0.0140
4284,-1.0089,0.0085,0.0266,0.0473,-0.1398,-0.0471
4294,-1.0082,0.0068,0.0230,0.0473,-0.0482,-0.0624
4304,-1.0084,0.0073,0.0251,0.0321,-0.0635,0.0292
4314,-1.0104,0.0073,0.0239,-0.0137,-0.0177,0.0750
4324,-1.0118,0.0082,0.0273,0.0626,-0.0330,0.0292
4334,-1.0074,0.0082,0.0295,-0.0137,-0.1093,-0.0013
4344,-1.0055,0.0053,0.0310,0.0015,-0.1551,-0.0013
4354,-1.0040,0.0063,0.0302,0.0015,-0.1246,0.0292
4364,-1.0082,0.0060,0.0295,-0.0595,-0.0024,0.0903
4374,-1.0035,0.0077,0.0300,0.0015,-0.0788,0.0445
4384,-1.0018,0.0119,0.0247,-0.0137,-0.0788,-0.0166
4394,-1.0077,0.0099,0.0259,-0.0290,0.0128,-0.0166
4404,-1.0099,0.0104,0.0235,-0.0748,0.0892,0.0140
4414,-1.0079,0.0080,0.0261,-0.0290,0.0281,0.0292
4424,-1.0111,0.0065,0.0280,-0.0137,-0.0177,-0.0166
4434,-1.0133,0.0046,0.0208,0.0015,-0.0177,0.0445
4444,-1.0057,0.0075,0.0273,-0.0443,-0.0940,-0.0471
4454,-1.0050,0.0114,0.0293,0.0321,-0.0024,-0.0471
4464,-1.0047,0.0092,0.0280,0.0321,0.0434,-0.0471
4474,-1.0072,0.0131,0.0227,0.0168,0.0586,-0.0624
4484,-1.0153,0.0073,0.0297,-0.0137,-0.0482,-0.0318
4494,-1.0126,0.0094,0.0319,0.0321,-0.1246,0.0292
4504,-1.0091,0.0104,0.0254,0.0015,-0.1398,-0.0318
4514,-1.0094,0.0058,0.0293,-0.0137,-0.0024,-0.0318
4524,-1.0064,0.0092,0.0278,-0.0137,0.0434,0.0598
4534,-1.0091,0.0121,0.0285,0.0321,0.0128,0.0292
4544,-1.0086,0.0107,0.0254,-0.0137,-0.0482,-0.0013
4554,-1.0047,0.0107,0.0326,0.0626,-0.0482,-0.0624
4564,-1.0052,0.0082,0.0278,0.0321,-0.0024,-0.0013
4574,-1.0099,0.0068,0.0307,-0.0290,0.1502,-0.0166
4584,-1.0106,0.0090,0.0276,-0.0137,0.1350,0.0903
4594,-1.0128,0.0085,0.0239,0.0779,-0.0024,-0.0013
4604,-1.0140,0.0065,0.0247,0.0321,0.0586,-0.0776
4614,-1.0042,0.0063,0.0256,0.0779,-0.0482,-0.0776
4624,-1.0091,0.0080,0.0230,0.0931,-0.0482,-0.0624
4634,-1.0079,0.0136,0.0218,0.0015,-0.0330,-0.0318
4644,-1.0064,0.0099,0.0278,-0.0595,0.0281,-0.0776
4654,-1.0136,0.0126,0.0247,-0.0137,-0.0177,-0.0776
4664,-1.0084,0.0082,0.0244,-0.0443,-0.0635,-0.0624
4674,-1.0055,0.0073,0.0334,-0.0595,-0.0940,-0.0318
4684,-1.0055,0.0085,0.0273,-0.0595,0.0128,0.0292
4694,-1.0067,0.0085,0.0273,0.0015,-0.0940,0.1056
4704,-1.0072,0.0109,0.0324,0.0015,0.0281,0.0750
4714,-1.0086,0.0094,0.0285,0.0626,-0.0177,0.0292
4724,-1.0064,0.0158,0.0314,-0.0290,0.0281,0.0445
4734,-1.0106,0.0082,0.0317,-0.0443,0.0739,-0.0318
4744,-1.0089,0.0094,0.0268,0.0015,0.1197,-0.0624
4754,-1.0077,0.0068,0.0242,-0.1206,0.0434,-0.0013
4764,-1.0106,0.0041,0.0259,-0.1511,0.0586,0.0750
4774,-1.0064,0.0043,0.0283,-0.0290,0.0739,0.1208
4784,-1.0057,0.0024,0.0256,-0.0137,0.0434,0.0750
4794,-1.0057,0.0107,0.0244,0.0168,0.0739,0.0445
4804,-1.0084,0.0092,0.0237,0.0473,0.0281,-0.0318
4814,-1.0086,0.0160,0.0261,0.0321,-0.0482,-0.0166
4824,-1.0101,0.0177,0.0259,-0.0443,-0.0024,0.0140
4834,-1.0121,0.0134,0.0293,-0.0748,-0.0635,-0.0471
4844,-1.0072,0.0082,0.0273,0.0015,-0.0940,0.0445
4854,-1.0074,0.0102,0.0331,0.0168,-0.1093,-0.0166
4864,-1.0084,0.0090,0.0285,-0.0137,-0.1246,-0.0624
4874,-1.0084,0.0077,0.0268,-0.0137,-0.0024,-0.0776
4884,-1.0121,0.0065,0.0331,0.0473,-0.0330,-0.0471
4894,-1.0050,0.0068,0.0329,0.0473,-0.0482,-0.0929
4904,-0.9976,0.0116,0.0459,0.0168,-0.0177,-0.0929
4914,-1.0150,0.0051,0.0271,-0.0290,0.0586,-0.0929
4924,-1.0035,0.0058,0.0297,-0.1053,0.0892,-0.1234
4934,-1.0064,0.0068,0.0261,-0.0443,0.1044,-0.0166
4944,-1.0079,0.0068,0.0259,-0.0595,0.1044,-0.0013
4954,-1.0131,0.0085,0.0312,0.0168,0.0434,-0.0166
4964,-1.0099,0.0116,0.0232,0.0321,0.0128,0.0140
4974,-1.0077,0.0126,0.0271,0.0473,0.0434,-0.0471
4984,-1.0082,0.0092,0.0189,0.0015,0.0434,0.0292
4994,-1.0113,0.0102,0.0249,-0.0290,0.1197,-0.0318
5004,-1.0074,0.0112,0.0237,-0.0137,0.0128,-0.0166
5014,-1.0074,0.0094,0.0271,0.0779,-0.0330,0.0140
5024,-1.0035,0.0046,0.0251,-0.0137,-0.0940,-0.0013
5034,-1.0033,0.0019,0.0247,-0.0290,-0.0024,0.0903
5044,-1.0072,0.0104,0.0266,-0.0443,-0.0024,0.0292
5054,-1.0060,0.0063,0.0310,-0.0443,0.0586,0.0445
5064,-1.0077,0.0048,0.0312,-0.0137,-0.0024,-0.0624
5074,-1.0072,0.0085,0.0314,0.0015,0.0434,-0.0776
5084,-1.0057,0.0058,0.0295,-0.0901,0.0128,0.0292
5094,-1.0104,0.0077,0.0297,0.0168,0.0281,0.0903
5104,-1.0091,0.0119,0.0319,0.0779,0.0434,0.0292
5114,-1.0069,0.0070,0.0264,0.0779,0.0434,0.1056
5124,-1.0057,0.0090,0.0314,0.0168,0.0892,0.1056
5134,-1.0118,0.0016,0.0302,-0.0290,0.0434,0.0903
5144,-1.0096,0.0053,0.0324,-0.0290,0.0281,0.0903
5154,-1.0057,0.0063,0.0220,0.0168,0.0128,0.0598
5164,-1.0106,0.0082,0.0239,0.0015,-0.0635,0.0140
5174,-1.0067,0.0090,0.0247,0.0015,0.0281,0.0292
5184,-1.0082,0.0104,0.0247,0.0168,-0.0788,-0.0624
5194,-1.0077,0.0124,0.0280,-0.0137,0.0128,0.0140
5204,-1.0069,0.0112,0.0254,-0.0748,-0.0024,0.0292
5214,-1.0094,0.0094,0.0317,-0.0290,0.0434,0.0140
5224,-1.0096,0.0063,0.0264,-0.0748,-0.0024,0.0598
5234,-1.0050,0.0073,0.0264,0.0473,-0.0635,0.0750
5244,-1.0047,0.0107,0.0254,0.1542,-0.0330,0.0750
5254,-1.0074,0.0085,0.0254,0.0931,-0.0635,-0.0471
5264,-1.0086,0.0097,0.0266,0.0931,-0.0177,-0.0929
5274,-1.0121,0.0102,0.0271,-0.0443,-0.0482,-0.0318
5284,-1.0091,0.0085,0.0254,-0.0290,-0.1398,0.0292
5294,-1.0096,0.0070,0.0232,-0.0901,-0.1398,-0.0471
5304,-1.0082,0.0087,0.0285,-0.0748,-0.1093,0.0445
5314,-1.0074,0.0097,0.0280,0.0473,-0.0788,-0.0013
5324,-1.0074,0.0068,0.0273,-0.0290,-0.0635,-0.0166
5334,-1.0086,0.0112,0.0314,-0.0748,-0.0177,0.0292
5344,-1.0055,0.0131,0.0295,-0.0595,0.0739,0.0445
5354,-1.0033,0.0109,0.0334,-0.0901,0.0281,0.0140
5364,-1.0040,0.0073,0.0300,-0.0901,0.0586,-0.0166
5374,-1.0086,0.0099,0.0339,-0.0595,0.1044,0.0140
5384,-1.0094,0.0068,0.0261,0.0321,0.0586,-0.0776
5394,-1.0101,0.0073,0.0266,-0.0137,-0.0024,-0.0776
5404,-1.0111,0.0075,0.0225,0.0626,-0.0024,-0.0166
5414,-1.0094,0.0080,0.0191,0.0473,0.0281,-0.0776
5424,-1.0111,0.0085,0.0244,0.0168,-0.0482,-0.0471
5434,-1.0128,0.0063,0.0198,-0.0595,-0.0482,-0.0471
5444,-1.0123,0.0070,0.0307,-0.0595,-0.0788,0.0292
5454,-1.0106,0.0031,0.0372,-0.1511,-0.0940,0.0292
5464,-1.0035,0.0073,0.0302,-0.0901,-0.0177,0.0140
5474,-1.0045,0.0070,0.0288,-0.0137,-0.0024,0.0140
5484,-1.0104,0.0016,0.0348,0.0321,-0.0482,0.0140
5494,-1.0047,0.0124,0.0324,0.0321,0.0128,-0.0318
5504,-1.0101,0.0073,0.0348,0.0473,0.0128,-0.0776
5514,-1.0082,0.0116,0.0264,0.0168,0.0128,-0.0929
5524,-1.0084,0.0097,0.0261,-0.0137,-0.0024,-0.0013
5534,-1.0123,0.0073,0.0213,-0.1053,0.0434,-0.0929
5544,-1.0099,0.0053,0.0288,-0.0290,-0.0177,-0.0013
5554,-1.0116,0.0070,0.0213,-0.0595,-0.0635,-0.0318
5564,-1.0086,0.0075,0.0198,-0.0748,-0.0940,-0.1082
5574,-1.0082,0.0107,0.0230,-0.0595,-0.0330,-0.0624
5584,-1.0074,0.0070,0.0326,0.0321,-0.0788,0.0140
5594,-1.0111,0.0097,0.0268,0.0168,-0.0330,-0.0471
5604,-1.0099,0.0077,0.0302,0.0321,-0.0177,0.0292
5614,-1.0064,0.0033,0.0290,0.0321,-0.0482,-0.0624
5624,-1.0079,0.0126,0.0278,0.0473,-0.0482,0.0140
5634,-1.0086,0.0124,0.0302,-0.0137,-0.0330,-0.0318
5644,-1.0094,0.0104,0.0341,-0.0443,-0.0635,-0.0624
5654,-1.0091,0.0048,0.0312,-0.0443,0.0128,-0.0013
5664,-1.0094,0.0068,0.0278,-0.0901,0.0739,-0.0318
5674,-1.0055,0.0053,0.0189,-0.0748,0.0739,0.0292
5684,-1.0126,0.0060,0.0254,-0.0290,0.2113,0.0598
5694,-1.0072,0.0131,0.0268,0.0015,0.1044,0.0140
5704,-1.0089,0.0102,0.0273,0.0321,-0.0177,-0.0013
5714,-1.0067,0.0104,0.0225,-0.0443,-0.0788,-0.0166
5724,-1.0067,0.0082,0.0208,-0.0901,-0.0482,-0.0013
5734,-1.0111,0.0107,0.0273,0.0015,0.0128,-0.0166
5744,-1.0055,0.0055,0.0227,-0.0443,-0.0788,-0.0624
5754,-1.0062,0.0092,0.0307,-0.0290,-0.1246,-0.0166
5764,-1.0091,0.0085,0.0239,0.0321,-0.0940,0.0598
5774,-1.0079,0.0041,0.0326,-0.0290,-0.0940,0.0598
5784,-1.0055,0.0055,0.0331,-0.0290,-0.0635,0.1056
5794,-1.0060,0.0033,0.0288,0.0168,-0.1093,0.1666
5804,-1.0074,0.0090,0.0372,0.0779,-0.0177,0.1666
5814,-1.0101,0.0051,0.0319,0.0015,0.0128,0.2277
5824,-1.0060,0.0063,0.0324,-0.0137,0.0739,0.0750
5834,-1.0060,0.0129,0.0312,0.0015,0.0739,0.0750
5844,-1.0086,0.0121,0.0271,-0.1206,0.0892,0.0598
5854,-1.0111,0.0129,0.0235,-0.1969,0.0892,0.0292
5864,-1.0045,0.0090,0.0268,-0.1053,0.0586,-0.0318
5874,-1.0069,0.0051,0.0254,-0.0901,0.0892,-0.0166
5884,-1.0094,0.0080,0.0205,-0.0595,0.0739,-0.0318
5894,-1.0060,0.0085,0.0244,-0.0290,0.1044,-0.0013
5904,-1.0086,0.0092,0.0220,0.0321,0.0739,-0.0013
5914,-1.0089,0.0080,0.0230,0.0168,0.1044,0.0445
5924,-1.0067,0.0068,0.0266,-0.1206,0.0739,-0.0013
5934,-1.0077,0.0082,0.0293,-0.0137,-0.0788,-0.0318
5944,-1.0069,0.0077,0.0198,0.0626,-0.1093,-0.0166
5954,-1.0052,0.0077,0.0249,0.0321,-0.1551,-0.0471
5964,-1.0091,0.0092,0.0249,-0.0595,-0.1856,0.0292
5974,-1.0099,0.0097,0.0261,0.0626,-0.1093,0.0140
5984,-1.0057,0.0068,0.0249,0.0168,-0.1246,0.0750
5994,-1.0099,0.0080,0.0317,-0.0595,-0.1398,0.0292
6004,-1.0099,0.0129,0.0247,0.0015,-0.0788,0.0598
6014,-1.0079,0.0068,0.0312,0.0168,-0.0024,-0.0166
6024,-1.0057,0.0092,0.0297,0.0015,-0.0482,0.0598
6034,-1.0077,0.0053,0.0341,-0.0748,-0.0482,0.0598
6044,-1.0072,0.0087,0.0237,-0.0290,-0.0024,-0.0318
6054,-1.0094,0.0063,0.0235,0.0473,0.0739,0.0292
6064,-1.0082,0.0082,0.0256,0.0321,0.0128,0.0445
6074,-1.0052,0.0126,0.0176,0.0473,-0.0024,0.0598
6084,-1.0072,0.0085,0.0220,-0.0137,0.0739,0.0292
6094,-1.0101,0.0094,0.0203,-0.0137,0.1044,0.0140
6104,-1.0055,0.0114,0.0268,-0.0901,0.0434,-0.0318
6114,-1.0069,0.0055,0.0242,-0.0748,-0.0482,-0.0776
6124,-1.0079,0.0107,0.0268,-0.0137,-0.0177,0.0598
6134,-1.0072,0.0063,0.0295,0.0015,-0.0482,0.0598
6144,-1.0035,0.0102,0.0273,0.0168,-0.0635,0.0140
6154,-1.0050,0.0102,0.0336,0.0473,0.0128,0.1208
6164,-1.0099,0.0099,0.0264,0.0168,0.0128,-0.0166
6174,-1.0047,0.0107,0.0295,0.0015,0.0128,0.0140
6184,-1.0055,0.0102,0.0242,-0.0443,-0.0024,0.0140
6194,-1.0052,0.0094,0.0329,-0.0748,-0.0024,0.0750
6204,-1.0062,0.0070,0.0334,-0.0290,-0.0330,0.0750
6214,-1.0123,0.0075,0.0339,-0.0748,0.0892,0.0903
6224,-1.0047,0.0116,0.0339,-0.0443,0.0739,0.0140
6234,-1.0074,0.0080,0.0295,-0.0290,0.0586,0.0292
6244,-1.0062,0.0107,0.0276,-0.0137,0.1044,0.0598
6254,-1.0094,0.0094,0.0237,-0.0443,0.1044,0.1056
6264,-1.0121,0.0087,0.0227,0.0168,0.1350,0.0903
6274,-1.0072,0.0053,0.0251,-0.0290,0.0739,0.0750
6284,-1.0086,0.0038,0.0283,-0.1053,0.0892,0.0598
6294,-1.0126,0.0080,0.0237,0.0321,0.0281,0.0903
6304,-1.0101,0.0104,0.0295,-0.0137,-0.0330,0.1208
6314,-1.0074,0.0065,0.0293,-0.0137,-0.0482,0.0140
6324,-1.0052,0.0094,0.0336,-0.0290,-0.0788,0.0750
6334,-1.0099,0.0121,0.0331,0.0168,-0.0788,0.0445
6344,-1.0060,0.0119,0.0319,0.0779,-0.0482,0.1056
6354,-1.0062,0.0116,0.0295,0.0168,-0.0024,0.0292
6364,-1.0094,0.0099,0.0351,0.0168,-0.0330,-0.0166
6374,-1.0060,0.0048,0.0290,0.0626,-0.0177,-0.0013
6384,-1.0084,0.0082,0.0276,-0.0290,0.0128,0.0598
6394,-1.0089,0.0068,0.0302,-0.0748,-0.0024,0.0292
6404,-1.0138,0.0075,0.0208,0.0015,0.0892,-0.0318
6414,-1.0060,0.0104,0.0179,0.0168,0.0739,-0.0166
6424,-1.0101,0.0038,0.0193,-0.0137,0.0128,0.0445
6434,-1.0086,0.0070,0.0290,0.0473,-0.0940,0.0140
6444,-1.0077,0.0055,0.0222,-0.0443,-0.0940,0.0140
6454,-1.0084,0.0090,0.0247,0.0473,-0.0330,0.0292
6464,-1.0079,0.0065,0.0254,0.0473,-0.0177,-0.0013
6474,-1.0094,0.0060,0.0244,0.0321,-0.0177,-0.0013
6484,-1.0045,0.0085,0.0351,-0.0137,-0.0482,0.0445
6494,-1.0104,0.0104,0.0280,-0.0290,-0.0330,-0.0013
6504,-1.0040,0.0134,0.0319,-0.0443,0.0128,0.0292
6514,-1.0091,0.0109,0.0326,-0.1206,0.0892,0.0140
6524,-1.0064,0.0075,0.0312,-0.1053,0.0281,-0.0471
6534,-1.0052,0.0031,0.0276,-0.0137,0.0892,-0.0471
6544,-1.0055,0.0090,0.0280,-0.1664,0.0434,-0.0013
6554,-1.0084,0.0107,0.0268,-0.0901,0.1502,-0.0776
6564,-1.0096,0.0114,0.0251,-0.0290,0.1044,-0.0624
6574,-1.0104,0.0114,0.0302,-0.0443,0.0739,-0.0776
6584,-1.0118,0.0077,0.0215,-0.0137,0.0892,-0.0318
6594,-1.0064,0.0082,0.0225,-0.0290,0.0892,-0.0013
6604,-1.0082,0.0104,0.0198,0.0015,0.0586,-0.0624
6614,-1.0084,0.0060,0.0203,-0.0137,0.0281,-0.0013
6624,-1.0086,0.0046,0.0208,-0.0595,-0.0482,0.0292
6634,-1.0126,0.0060,0.0210,-0.0748,-0.0482,-0.0013
6644,-1.0089,0.0104,0.0247,-0.0443,-0.0024,-0.0471
6654,-1.0089,0.0087,0.0244,-0.0443,-0.0788,0.0598
6664,-1.0069,0.0136,0.0317,0.0015,-0.0482,0.0598
6674,-1.0069,0.0099,0.0259,0.0626,-0.0177,0.0750
6684,-1.0101,0.0053,0.0300,0.0321,-0.0024,0.0292
6694,-1.0072,0.0090,0.0334,0.0473,-0.0177,-0.0166
6704,-1.0035,0.0051,0.0382,0.0015,-0.0482,0.0445
6714,-1.0064,0.0082,0.0256,-0.0137,-0.0024,-0.0013
6724,-1.0060,0.0082,0.0266,0.0015,-0.0177,-0.0318
6734,-1.0099,0.0063,0.0239,0.0168,-0.0024,-0.0624
6744,-1.0138,0.0097,0.0249,0.0321,0.0128,0.0140
6754,-1.0052,0.0063,0.0235,0.1084,-0.0024,0.0140
6764,-1.0096,0.0087,0.0222,0.0168,0.0128,0.0140
6774,-1.0084,0.0077,0.0237,-0.0290,-0.0330,0.0292
6784,-1.0091,0.0153,0.0271,0.0168,-0.0177,0.0445
6794,-1.0062,0.0114,0.0261,0.0931,-0.0635,-0.0471
6804,-1.0084,0.0136,0.0319,0.0626,-0.0940,-0.0166
6814,-1.0089,0.0116,0.0242,0.0321,-0.1246,-0.0013
6824,-1.0099,0.0134,0.0310,-0.0137,-0.1093,-0.0013
6834,-1.0067,0.0082,0.0300,-0.0137,-0.0635,-0.0013
6844,-1.0072,0.0051,0.0280,0.0015,-0.0635,-0.0166
6854,-1.0096,0.0065,0.0307,0.0015,-0.0177,-0.0166
6864,-1.0082,0.0073,0.0278,-0.0137,-0.0177,-0.0624
6874,-1.0067,0.0058,0.0353,-0.0290,0.0128,0.0445
6884,-1.0037,0.0058,0.0365,0.0015,0.0281,0.0292
6894,-1.0045,0.0046,0.0295,-0.0290,-0.0177,0.0750
6904,-1.0079,0.0070,0.0235,-0.0137,0.0586,0.0140
6914,-1.0111,0.0058,0.0259,-0.0290,-0.0177,-0.0318
6924,-1.0091,0.0087,0.0300,-0.0137,-0.0482,0.0598
6934,-1.0116,0.0107,0.0247,-0.0290,-0.0024,-0.0471
6944,-1.0069,0.0107,0.0235,-0.0290,-0.0024,-0.0166
6954,-1.0123,0.0126,0.0300,-0.0137,-0.0177,0.0750
6964,-1.0148,0.0080,0.0273,0.0168,-0.0177,0.1056
6974,-1.0106,0.0092,0.0227,0.0321,-0.0482,0.1056
6984,-1.0003,0.0070,0.0312,0.0168,-0.0024,0.0445
6994,-1.0045,0.0099,0.0278,-0.0290,-0.0635,0.0598
7004,-1.0013,0.0148,0.0331,0.0015,-0.0482,-0.0166
7014,-1.0077,0.0126,0.0310,0.0168,-0.0788,-0.0318
7024,-1.0079,0.0107,0.0254,-0.0137,-0.0940,0.0445
7034,-1.0101,0.0077,0.0249,-0.1053,-0.0788,-0.0013
7044,-1.0067,0.0080,0.0193,-0.0595,-0.0940,0.0292
7054,-1.0104,0.0107,0.0276,0.0015,-0.0635,-0.0013
7064,-1.0094,0.0119,0.0239,0.0626,-0.0177,0.0140
7074,-1.0064,0.0082,0.0280,0.0779,-0.0635,0.0292
7084,-1.0086,0.0119,0.0254,0.0779,-0.1246,0.0140
7094,-1.0089,0.0104,0.0280,0.0168,-0.0482,-0.0318
7104,-1.0079,0.0021,0.0266,-0.0748,-0.0635,-0.0471
7114,-1.0096,0.0065,0.0271,-0.0290,-0.0482,-0.0318
7124,-1.0055,0.0060,0.0273,-0.0290,-0.0330,-0.0471
7134,-1.0060,0.0063,0.0300,0.0168,0.0739,0.0445
7144,-1.0074,0.0051,0.0205,0.0321,0.0128,0.0292
7154,-1.0079,0.0102,0.0254,0.1084,0.0281,0.0140
7164,-1.0086,0.0099,0.0227,0.0931,-0.0177,-0.0318
7174,-1.0099,0.0136,0.0326,-0.0137,-0.0482,-0.0166
7184,-1.0040,0.0109,0.0278,0.0473,-0.0482,-0.0166
7194,-1.0091,0.0116,0.0247,-0.0443,-0.0330,0.0140
7204,-1.0126,0.0102,0.0256,-0.0595,0.0281,-0.0776
7214,-1.0089,0.0087,0.0288,-0.0290,0.0128,-0.0318
7224,-1.0072,0.0094,0.0268,0.0168,-0.0788,-0.0166
7234,-1.0077,0.0116,0.0208,0.0779,-0.0940,-0.0776
7244,-1.0062,0.0121,0.0261,0.1389,-0.0940,-0.0013
7254,-1.0101,0.0165,0.0288,0.0626,-0.0788,-0.0929
7264,-1.0035,0.0158,0.0353,-0.0137,-0.0788,-0.0624
7274,-1.0040,0.0112,0.0331,-0.0443,0.0128,-0.0013
7284,-1.0045,0.0048,0.0353,-0.0443,0.0892,0.1056
7294,-1.0072,0.0026,0.0353,-0.0595,0.2266,0.0903
7304,-1.0094,-0.0006,0.0297,-0.0748,0.2266,0.0598
7314,-1.0101,-0.0013,0.0319,-0.0443,0.2266,0.1819
7324,-1.0118,0.0094,0.0266,0.0168,0.2571,0.1666
7334,-1.0052,0.0124,0.0319,0.0473,0.2571,0.0750
7344,-1.0111,0.0155,0.0198,-0.0290,0.2113,0.0445
7354,-1.0121,0.0148,0.0264,0.0321,0.1655,0.0445
7364,-1.0089,0.0143,0.0184,0.0168,0.1655,0.1208
7374,-1.0123,0.0134,0.0189,-0.0137,0.0128,0.0292
7384,-1.0106,0.0087,0.0208,-0.0290,-0.0330,-0.0471
7394,-1.0172,0.0055,0.0191,0.0321,-0.0177,-0.0929
7404,-1.0072,0.0073,0.0237,0.0626,-0.0482,-0.0776
7414,-1.0084,0.0073,0.0232,0.0779,-0.0940,-0.0471
7424,-1.0106,0.0087,0.0256,0.0931,-0.0635,-0.0776
7434,-1.0077,0.0060,0.0293,0.0015,-0.0482,-0.0471
7444,-1.0116,0.0148,0.0290,-0.0137,-0.0482,-0.0471
7454,-1.0104,0.0082,0.0261,-0.0443,-0.0940,-0.0013
7464,-1.0072,0.0097,0.0322,0.0321,-0.1246,0.0445
7474,-1.0094,0.0112,0.0310,0.0473,-0.0635,0.0140
7484,-1.0094,0.0068,0.0290,0.0321,-0.0024,0.0598
7494,-1.0106,0.0092,0.0283,0.0626,-0.0330,-0.0471
7504,-1.0086,0.0121,0.0302,-0.0290,-0.0330,-0.0776
7514,-1.0060,0.0016,0.0244,-0.0443,0.0128,-0.0166
7524,-1.0069,0.0031,0.0285,0.0168,0.0281,0.0140
7534,-1.0121,-0.0018,0.0266,-0.0137,-0.0177,-0.1234
7544,-1.0113,0.0043,0.0297,0.0626,-0.0330,0.0140
7554,-1.0106,0.0090,0.0261,0.0931,-0.0330,0.0140
7564,-1.0084,0.0097,0.0261,0.0473,-0.0635,-0.0013
7574,-1.0086,0.0107,0.0235,0.0779,-0.1093,0.0750
7584,-1.0069,0.0116,0.0300,0.0015,-0.0177,0.1056
7594,-1.0072,0.0153,0.0295,-0.0443,0.0281,0.0903
7604,-1.0136,0.0114,0.0341,-0.0290,-0.0177,-0.0624
7614,-1.0091,0.0109,0.0329,-0.0748,-0.0177,-0.0013
7624,-1.0079,0.0087,0.0285,-0.0137,0.0434,0.0292
7634,-1.0086,0.0107,0.0312,0.0015,-0.0177,0.0140
7644,-1.0057,0.0087,0.0256,-0.0137,0.0739,-0.0166
7654,-1.0084,0.0124,0.0283,-0.0137,0.1197,0.0445
7664,-1.0091,0.0126,0.0280,-0.0595,0.1350,-0.0166
7674,-1.0109,0.0112,0.0310,-0.0595,0.1197,-0.1082
7684,-1.0089,0.0021,0.0278,-0.0290,0.1350,-0.1387
7694,-1.0094,0.0046,0.0205,-0.0901,0.0434,-0.0776
7704,-1.0101,0.0048,0.0264,-0.0290,0.0892,-0.0776
7714,-1.0084,0.0036,0.0189,-0.0137,0.0892,-0.0776
7724,-1.0116,0.0048,0.0254,-0.0137,0.0281,-0.0013
7734,-1.0101,0.0024,0.0249,0.0015,0.0892,0.0292
7744,-1.0091,0.0009,0.0295,-0.0290,-0.0330,0.0598
7754,-1.0082,0.0055,0.0249,-0.0748,0.0281,0.0903
7764,-1.0099,0.0038,0.0254,-0.0443,-0.0788,0.1514
7774,-1.0126,0.0051,0.0293,-0.0137,-0.0330,0.0750
7784,-1.0106,0.0163,0.0273,0.0931,-0.0024,0.0292
7794,-1.0082,0.0175,0.0232,0.0626,-0.0024,0.0598
7804,-1.0099,0.0190,0.0261,0.0321,-0.1246,0.0292
7814,-1.0096,0.0143,0.0326,-0.0290,-0.1856,-0.0013
7824,-1.0028,0.0082,0.0300,0.0015,-0.1551,-0.0624
7834,-1.0089,0.0055,0.0266,-0.0443,-0.0940,-0.0166
7844,-1.0086,0.0080,0.0302,-0.0901,-0.0330,-0.0318
7854,-1.0082,0.0068,0.0288,0.0015,0.0739,-0.0929
7864,-1.0101,0.0048,0.0222,0.0015,0.0739,-0.0624
7874,-1.0050,0.0094,0.0264,0.0168,0.0586,-0.0013
7884,-1.0050,0.0087,0.0280,0.0168,0.0281,-0.0929
7894,-1.0084,0.0092,0.0271,0.0473,0.0281,-0.0471
7904,-1.0082,0.0092,0.0254,-0.0443,0.0281,-0.0318
7914,-1.0099,0.0104,0.0280,-0.0748,-0.0482,-0.0776
7924,-1.0060,0.0063,0.0302,-0.0443,-0.0330,-0.0776
7934,-1.0064,0.0092,0.0244,0.0168,0.0128,-0.0166
7944,-1.0074,0.0114,0.0220,-0.0290,-0.0482,-0.0929
7954,-1.0091,0.0119,0.0290,-0.0595,-0.0024,-0.0166
7964,-1.0145,0.0051,0.0261,-0.0290,0.0434,0.0445
7974,-1.0077,0.0107,0.0271,-0.0443,-0.0330,-0.0776
7984,-1.0074,0.0051,0.0271,-0.0290,-0.0177,-0.1692
7994,-1.0079,0.0065,0.0331,0.0321,0.0739,-0.1082
8004,-1.0042,0.0055,0.0230,0.0015,0.0434,-0.0929
8014,-1.0084,0.0075,0.0278,0.0015,0.0892,-0.0013
8024,-1.0084,0.0092,0.0249,0.0321,0.0739,0.0445
8034,-1.0069,0.0063,0.0334,0.0473,-0.0330,0.0140
8044,-1.0099,0.0073,0.0249,-0.0137,-0.0024,-0.0013
8054,-1.0077,0.0080,0.0264,-0.0748,-0.0330,-0.0318
8064,-1.0069,0.0131,0.0259,-0.0290,0.0128,0.0750
8074,-1.0096,0.0097,0.0239,-0.0290,0.0739,0.0598
8084,-1.0099,0.0114,0.0305,-0.0443,-0.0177,-0.0013
8094,-1.0091,0.0131,0.0235,-0.0595,-0.0024,0.0292
8104,-1.0042,0.0087,0.0264,0.0015,0.0434,0.0140
8114,-1.0091,0.0085,0.0339,-0.0137,0.0128,0.0140
8124,-1.0067,0.0082,0.0336,0.0168,-0.0635,-0.0013
8134,-1.0072,0.0060,0.0317,0.0626,-0.0024,-0.0013
8144,-1.0106,0.0087,0.0259,0.0015,-0.0330,-0.0318
8154,-1.0082,0.0107,0.0290,0.0168,0.0128,-0.0471
8164,-1.0084,0.0094,0.0264,-0.0290,0.0281,0.0140
8174,-1.0074,0.0082,0.0235,-0.0748,-0.0330,-0.0166
8184,-1.0064,0.0107,0.0189,-0.0748,-0.0177,0.0140
8194,-1.0101,0.0082,0.0290,0.0015,-0.0177,-0.0776
8204,-1.0104,0.0090,0.0251,-0.0748,0.0281,0.0140
8214,-1.0069,0.0068,0.0339,-0.0290,0.0586,0.0750
8224,-1.0072,0.0068,0.0358,-0.0595,0.0128,0.0140
8234,-1.0091,0.0036,0.0264,-0.0290,-0.0024,-0.0013
8244,-1.0101,0.0126,0.0307,0.0015,0.0128,0.1056
8254,-1.0077,0.0082,0.0266,0.0015,0.0434,0.0750
8264,-1.0096,0.0097,0.0297,0.0015,0.0128,-0.0013
8274,-1.0074,0.0092,0.0259,0.0626,0.0281,-0.0166
8284,-1.0069,0.0109,0.0235,-0.0137,0.1044,-0.0166
8294,-1.0086,0.0119,0.0261,0.0168,0.1044,0.0445
8304,-1.0121,0.0094,0.0276,-0.0290,-0.0024,-0.0471
8314,-1.0082,0.0109,0.0290,-0.0443,-0.0024,-0.0776
8324,-1.0082,0.0041,0.0251,0.0015,0.0128,0.0140
8334,-1.0118,0.0077,0.0302,-0.0137,-0.0024,-0.0318
8344,-1.0064,0.0063,0.0264,-0.0748,-0.0788,-0.0624
8354,-1.0060,0.0036,0.0256,0.0168,0.0128,0.0140
8364,-1.0067,0.0029,0.0230,0.0321,0.0586,0.0445
8374,-1.0106,0.0090,0.0247,0.0779,0.0586,0.0598
8384,-1.0084,0.0119,0.0271,0.0015,-0.0177,0.0292
8394,-1.0084,0.0094,0.0271,0.0321,0.0281,-0.0471
8404,-1.0047,0.0109,0.0264,0.0321,0.0281,-0.0166
8414,-1.0118,0.0124,0.0251,-0.0290,0.0281,0.0598
8424,-1.0037,0.0094,0.0268,0.0015,0.0281,-0.0013
8434,-1.0062,0.0094,0.0324,0.0626,0.0281,-0.0318
8444,-1.0091,0.0053,0.0271,-0.0595,0.0434,-0.0776
8454,-1.0104,0.0080,0.0254,-0.0595,0.0434,-0.0929
8464,-1.0072,0.0080,0.0264,0.0473,-0.0330,-0.0776
8474,-1.0109,0.0058,0.0278,-0.0137,-0.0482,-0.0624
8484,-1.0089,0.0070,0.0285,0.0321,0.1197,0.0292
8494,-1.0086,0.0077,0.0273,0.0473,0.0128,-0.0013
8504,-1.0106,0.0090,0.0239,0.0015,-0.0330,0.0445
8514,-1.0074,0.0046,0.0256,-0.0595,0.0586,-0.0318
8524,-1.0113,0.0094,0.0266,-0.0443,0.0128,0.0903
8534,-1.0096,0.0043,0.0249,0.0168,0.0434,0.0598
8544,-1.0074,0.0041,0.0266,0.0779,0.0128,-0.0166
8554,-1.0064,0.0134,0.0280,0.0473,-0.0177,0.0903
8564,-1.0091,0.0131,0.0239,0.0473,-0.0330,0.0445
8574,-1.0072,0.0104,0.0307,0.0473,-0.0482,-0.0318
8584,-1.0109,0.0131,0.0271,-0.0748,-0.0177,-0.0776
8594,-1.0082,0.0092,0.0273,-0.0595,-0.0482,-0.0013
8604,-1.0079,0.0058,0.0225,-0.0595,-0.1093,-0.0318
8614,-1.0055,0.0048,0.0225,0.0321,-0.0482,-0.0471
8624,-1.0050,0.0077,0.0276,-0.0595,0.0281,-0.0166
8634,-1.0091,0.0080,0.0273,0.0931,0.0128,-0.0166
8644,-1.0074,0.0051,0.0295,0.0321,0.0434,0.0445
8654,-1.0074,0.0097,0.0230,0.0168,-0.0024,-0.0013
8664,-1.0052,0.0094,0.0285,-0.0595,0.0434,0.1361
8674,-1.0082,0.0121,0.0273,-0.0901,0.0586,0.0750
8684,-1.0104,0.0051,0.0285,-0.0748,0.0434,0.0292
8694,-1.0062,0.0097,0.0271,-0.1053,0.0434,0.0598
8704,-1.0072,0.0126,0.0259,-0.0443,0.1044,-0.0929
8714,-1.0020,0.0104,0.0227,-0.0290,0.0434,0.0445
8724,-1.0116,0.0131,0.0300,-0.0137,-0.0330,0.0140
8734,-1.0109,0.0109,0.0305,-0.0443,0.0128,0.0903
8744,-1.0133,0.0094,0.0251,-0.0137,0.0128,-0.0471
8754,-1.0106,0.0119,0.0285,-0.0901,-0.0177,-0.0166
8764,-1.0111,0.0092,0.0184,-0.0901,0.0128,0.0750
8774,-1.0109,0.0092,0.0324,-0.0595,0.0586,0.0445
8784,-1.0096,0.0119,0.0235,-0.0290,0.0434,0.0292
8794,-1.0091,0.0038,0.0266,-0.0137,0.0434,-0.0776
8804,-1.0045,0.0070,0.0307,0.1084,-0.0482,-0.0776
8814,-1.0104,0.0094,0.0285,0.0321,-0.0635,0.0598
8824,-1.0121,0.0077,0.0334,0.0779,-0.0482,0.0292
8834,-1.0057,0.0077,0.0249,0.0321,-0.0788,-0.0013
8844,-1.0094,0.0080,0.0266,-0.0290,-0.0482,0.0140
8854,-1.0074,0.0073,0.0312,-0.0137,0.0128,0.0445
8864,-1.0069,0.0087,0.0256,-0.0595,-0.0330,0.1056
8874,-1.0082,0.0097,0.0266,-0.0137,-0.0788,0.0140
8884,-1.0086,0.0112,0.0300,-0.0748,0.0281,0.0903
8894,-1.0069,0.0087,0.0264,-0.0137,-0.0024,-0.0166
8904,-1.0086,0.0092,0.0300,-0.0748,-0.0177,-0.0471
8914,-1.0084,0.0107,0.0222,-0.0137,-0.0024,-0.0166
8924,-1.0106,0.0073,0.0261,-0.0748,0.0892,0.0140
8934,-1.0074,0.0073,0.0290,-0.1053,0.0281,0.0140
8944,-1.0084,0.0046,0.0317,-0.0748,-0.0330,0.0445
8954,-1.0109,0.0053,0.0210,-0.0748,-0.0024,0.0292
8964,-1.0037,0.0043,0.0256,-0.0290,-0.0024,0.0140
8974,-1.0094,0.0068,0.0264,0.0015,-0.0024,-0.0318
8984,-1.0064,0.0070,0.0261,0.0168,-0.0177,-0.0624
8994,-1.0086,0.0124,0.0317,0.0321,-0.0024,-0.0166
9004,-1.0082,0.0104,0.0266,0.0015,0.0739,-0.0624
9014,-1.0060,0.0087,0.0273,-0.0595,0.0739,-0.0166
9024,-1.0145,0.0104,0.0239,-0.0443,0.0586,0.0292
9034,-1.0091,0.0055,0.0297,0.0168,-0.0330,0.0140
9044,-1.0096,0.0036,0.0312,-0.0290,0.0434,-0.0166
9054,-1.0094,0.0048,0.0283,0.0626,0.0739,-0.0318
9064,-1.0067,0.0090,0.0271,0.0473,-0.0024,-0.0624
9074,-1.0060,0.0077,0.0273,0.0626,-0.0635,-0.0471
9084,-1.0064,0.0082,0.0278,0.0626,0.0281,-0.0776
9094,-1.0136,0.0060,0.0259,0.0168,0.0128,0.0445
9104,-1.0118,0.0068,0.0264,-0.0137,-0.0330,0.0140
9114,-1.0060,0.0043,0.0259,0.0779,-0.0177,0.0750
9124,-1.0077,0.0070,0.0227,0.0015,-0.0177,0.1514
9134,-1.0118,0.0085,0.0242,0.0168,-0.0177,0.0903
9144,-1.0055,0.0114,0.0302,0.0015,-0.0788,-0.0013
9154,-1.0101,0.0036,0.0276,0.0015,-0.0788,0.0750
9164,-1.0077,0.0121,0.0288,0.0473,-0.0940,0.0292
9174,-1.0047,0.0138,0.0259,0.0321,-0.0482,0.0445
9184,-1.0104,0.0116,0.0261,0.0015,-0.0177,0.0140
9194,-1.0084,0.0048,0.0261,0.0321,-0.0482,0.0292
9204,-1.0067,0.0151,0.0348,0.0168,-0.0635,-0.0471
9214,-1.0096,0.0073,0.0259,0.0473,0.0434,0.0140
9224,-1.0082,0.0087,0.0314,0.0473,0.0281,-0.0929
9234,-1.0094,0.0077,0.0310,0.0321,-0.0177,-0.0624
9244,-1.0106,0.0092,0.0251,-0.0137,-0.0177,-0.0471
9254,-1.0126,0.0099,0.0230,0.0015,0.0739,0.0445
9264,-1.0109,0.0075,0.0174,-0.0595,0.0586,0.0750
9274,-1.0077,0.0046,0.0278,-0.0748,0.0281,0.0292
9284,-1.0057,0.0063,0.0256,-0.0748,-0.0024,-0.0318
9294,-1.0069,0.0068,0.0239,0.0473,-0.0024,-0.0776
9304,-1.0040,0.0065,0.0237,0.0321,-0.0177,-0.0166
9314,-1.0094,0.0107,0.0268,0.0779,-0.0940,-0.0166
9324,-1.0089,0.0112,0.0288,-0.0137,-0.0635,-0.0624
9334,-1.0077,0.0131,0.0293,0.0473,-0.0330,-0.0471
9344,-1.0094,0.0109,0.0285,-0.0443,0.0281,-0.0318
9354,-1.0064,0.0114,0.0322,0.0168,-0.0024,-0.0318
9364,-1.0101,0.0104,0.0254,0.0626,-0.0024,-0.0624
9374,-1.0060,0.0077,0.0251,-0.0443,-0.0330,-0.0776
9384,-1.0096,0.0085,0.0264,-0.0290,0.0434,-0.0318
9394,-1.0116,0.0104,0.0280,-0.1053,-0.0330,-0.0471
9404,-1.0050,0.0077,0.0314,-0.1206,-0.0024,-0.1082
9414,-1.0067,0.0082,0.0280,-0.0137,0.1044,0.0445
9424,-1.0111,0.0068,0.0259,0.0626,0.0739,0.0292
9434,-1.0086,0.0094,0.0247,0.0626,0.1044,0.0292
9444,-1.0104,0.0063,0.0280,-0.0443,0.0434,-0.0166
9454,-1.0047,0.0080,0.0242,-0.0290,0.0586,0.0750
9464,-1.0101,0.0077,0.0237,-0.1206,-0.0330,0.1056
9474,-1.0094,0.0129,0.0268,-0.0901,0.0281,0.0292
9484,-1.0096,0.0082,0.0290,-0.0748,0.0281,0.0445
9494,-1.0064,0.0102,0.0285,0.0168,0.0586,0.0292
9504,-1.0109,0.0126,0.0230,0.0626,0.0128,0.0750
9514,-1.0104,0.0136,0.0302,0.0168,0.0128,0.0445
9524,-1.0074,0.0104,0.0295,0.0321,-0.0635,-0.0318
9534,-1.0082,0.0114,0.0355,-0.1053,-0.0024,-0.0776
9544,-1.0082,0.0112,0.0295,-0.0748,0.0128,0.0445
9554,-1.0106,0.0048,0.0314,-0.0901,0.0739,-0.0166
9564,-1.0104,0.0075,0.0225,-0.0595,0.0586,-0.0471
9574,-1.0023,0.0104,0.0261,-0.0137,0.1350,-0.0318
9584,-1.0074,0.0082,0.0259,0.0015,0.1044,-0.0166
9594,-1.0109,0.0090,0.0213,-0.0748,0.1044,-0.0013
9604,-1.0096,0.0114,0.0210,0.0015,-0.0635,0.0750
9614,-1.0106,0.0029,0.0273,0.0168,-0.0177,0.0445
9624,-1.0074,0.0090,0.0334,-0.0595,0.0434,-0.0471
9634,-1.0094,0.0085,0.0222,-0.0748,0.0434,-0.0318
9644,-1.0082,0.0087,0.0227,0.0321,-0.0330,-0.0166
9654,-1.0096,0.0070,0.0285,0.0626,-0.0024,-0.0471
9664,-1.0037,0.0107,0.0305,0.0168,-0.0940,-0.0624
9674,-1.0042,0.0107,0.0283,0.1084,-0.0635,-0.0013
9684,-1.0091,0.0119,0.0305,0.0473,-0.0330,-0.0318
9694,-1.0106,0.0107,0.0280,0.0473,-0.0330,-0.0776
9704,-1.0072,0.0099,0.0297,0.0015,0.0128,-0.0318
9714,-1.0109,0.0080,0.0314,-0.0137,0.0586,-0.0929
9724,-1.0082,0.0036,0.0355,-0.0443,0.0281,-0.0776
9734,-1.0082,0.0087,0.0254,-0.0137,-0.0024,0.0750
9744,-1.0086,0.0051,0.0293,-0.0595,0.0281,0.0292
9754,-1.0042,0.0041,0.0288,-0.0137,0.0739,-0.0013
9764,-1.0104,0.0063,0.0213,0.0168,0.0739,0.0903
9774,-1.0072,0.0046,0.0283,0.0015,0.0281,0.0598
9784,-1.0062,0.0041,0.0232,-0.0290,0.0281,0.0750
9794,-1.0057,0.0097,0.0273,0.0473,0.0586,0.0750
9804,-1.0109,0.0112,0.0227,0.0473,-0.0177,0.0292
9814,-1.0089,0.0090,0.0297,-0.0443,0.0434,-0.0318
9824,-1.0089,0.0119,0.0276,0.0168,-0.0330,-0.1082
9834,-1.0128,0.0094,0.0295,0.0168,-0.0482,-0.0776
9844,-1.0094,0.0126,0.0276,-0.0290,-0.0788,0.0292
9854,-1.0082,0.0082,0.0271,0.0626,-0.0788,0.0445
9864,-1.0096,0.0085,0.0285,-0.0290,-0.0024,-0.0318
9874,-1.0064,0.0077,0.0312,0.0473,-0.0177,-0.0318
9884,-1.0099,0.0099,0.0271,0.0168,0.0128,-0.0166
9894,-1.0062,0.0080,0.0346,-0.0137,0.0128,0.0292
9904,-1.0062,0.0094,0.0261,0.0168,-0.0177,0.0445
9914,-1.0074,0.0077,0.0232,-0.0443,0.0281,0.0292
9924,-1.0045,0.0055,0.0247,-0.0595,0.0281,0.0598
9934,-1.0133,0.0060,0.0244,-0.0137,0.0739,0.0598
9944,-1.0072,0.0080,0.0251,0.0168,0.1044,-0.0013
9954,-1.0079,0.0016,0.0242,-0.0595,0.0586,0.0903
9964,-1.0094,0.0097,0.0210,-0.0137,0.0739,0.0292
9974,-1.0086,0.0102,0.0254,0.0015,0.0586,0.0292
9984,-1.0091,0.0087,0.0251,0.0015,-0.0788,0.0750
9994,-1.0067,0.0109,0.0310,-0.0595,0.0128,0.0140
10004,-1.0074,0.0090,0.0218,0.0321,-0.0482,-0.0318
10014,-1.0037,0.0102,0.0314,0.0321,-0.0482,-0.0166
10024,-1.0094,0.0055,0.0235,-0.0137,-0.0788,0.0292
10034,-1.0091,0.0085,0.0278,0.0321,-0.0635,-0.0318
10044,-1.0106,0.0087,0.0227,0.1237,-0.0482,-0.0318
10054,-1.0064,0.0112,0.0317,-0.0137,-0.0177,-0.0471
10064,-1.0074,0.0126,0.0300,0.0168,0.0128,-0.0318
10074,-1.0082,0.0075,0.0280,-0.0137,-0.0024,-0.0929
10084,-1.0042,0.0077,0.0319,0.0168,-0.0177,-0.0166
10094,-1.0074,0.0097,0.0280,-0.0290,-0.0024,0.0292
10104,-1.0104,0.0107,0.0346,0.0473,-0.0482,-0.0624
10114,-1.0096,0.0102,0.0254,0.0626,-0.0177,-0.0166
10124,-1.0057,0.0109,0.0261,0.0321,0.0434,-0.0166
10134,-1.0138,0.0153,0.0247,0.0015,0.0586,-0.0166
10144,-1.0091,0.0121,0.0297,-0.1053,-0.0024,0.0140
10154,-1.0042,0.0077,0.0288,-0.0748,0.0128,0.0292
10164,-1.0106,0.0060,0.0235,-0.0137,0.0128,-0.0624
10174,-1.0067,0.0058,0.0280,0.0321,-0.0024,-0.0013
10184,-1.0096,0.0075,0.0268,0.1084,-0.0177,-0.0318
10194,-1.0104,0.0055,0.0249,0.1084,-0.0635,-0.0624
10204,-1.0030,0.0104,0.0273,-0.0137,-0.0330,-0.0471
10214,-1.0050,0.0102,0.0254,-0.0290,-0.0940,-0.0166
10224,-1.0069,0.0041,0.0307,-0.0443,-0.0940,-0.0318
10234,-1.0094,0.0112,0.0261,-0.0443,-0.0330,-0.0471
10244,-1.0047,0.0129,0.0259,0.0473,-0.0482,0.0140
10254,-1.0089,0.0087,0.0290,-0.0443,-0.0482,0.0140
10264,-1.0099,0.0082,0.0244,0.0168,0.0281,-0.0013
10274,-1.0099,0.0077,0.0310,0.0626,0.0434,-0.0166
10284,-1.0113,0.0082,0.0305,0.0321,-0.0940,-0.0166
10294,-1.0104,0.0126,0.0266,0.0779,-0.0940,-0.0318
10304,-1.0028,0.0121,0.0283,-0.0137,-0.0177,-0.0471
10314,-1.0047,0.0080,0.0297,-0.0595,-0.0635,-0.1082
10324,-1.0082,0.0058,0.0283,-0.0290,-0.0177,-0.0013
10334,-1.0069,0.0107,0.0339,-0.1053,0.0281,0.0292
10344,-1.0096,0.0075,0.0331,0.0321,-0.0330,-0.0166
10354,-1.0047,0.0077,0.0273,0.0473,0.0892,0.0292
10364,-1.0109,0.0073,0.0288,0.0321,0.0739,-0.0013
10374,-1.0062,0.0060,0.0288,-0.0443,0.0586,-0.0318
10384,-1.0079,0.0070,0.0280,-0.0137,0.0586,-0.0776
10394,-1.0082,0.0060,0.0215,-0.0443,0.1197,-0.0624
10404,-1.0067,0.0080,0.0220,-0.0595,0.0892,0.0292
10414,-1.0047,0.0082,0.0264,0.0473,0.0434,-0.0624
10424,-1.0057,0.0060,0.0341,0.0015,-0.0177,-0.0318
10434,-1.0089,0.0085,0.0278,0.0473,0.0281,0.0140
10444,-1.0109,0.0090,0.0273,0.0168,-0.0788,0.0140
10454,-1.0138,0.0065,0.0276,0.0015,-0.0788,-0.0318
10464,-1.0096,0.0099,0.0261,-0.0290,-0.1093,0.0140
10474,-1.0116,0.0085,0.0290,-0.0137,-0.0330,-0.0166
10484,-1.0113,0.0099,0.0261,0.0321,-0.0788,-0.0013
10494,-1.0072,0.0116,0.0254,0.0321,-0.1093,-0.0013
10504,-1.0060,0.0077,0.0288,-0.0137,-0.0940,-0.1082
10514,-1.0079,0.0068,0.0239,-0.0137,-0.0330,-0.0471
10524,-1.0091,0.0114,0.0251,0.0321,0.0434,-0.0318
10534,-1.0060,0.0102,0.0276,0.0321,0.0586,-0.0624
10544,-1.0067,0.0116,0.0288,0.0015,0.0739,0.0445
10554,-1.0069,0.0121,0.0293,0.0321,0.1044,0.0445
10564,-1.0084,0.0085,0.0339,0.0168,0.0739,-0.0776
10574,-0.9981,0.0185,0.0273,0.0015,0.0128,-0.0471
10584,-1.0128,0.0063,0.0242,-0.0748,-0.0024,-0.0013
10594,-1.0104,0.0051,0.0256,0.0626,0.0739,-0.0013
10604,-1.0111,0.0104,0.0280,0.0321,0.0586,0.0598
10614,-1.0064,0.0116,0.0273,0.0168,0.0586,0.0903
10624,-1.0094,0.0043,0.0222,-0.0290,0.0434,0.0445
10634,-1.0094,0.0058,0.0227,0.0626,0.0586,-0.0013
10644,-1.0050,0.0048,0.0237,-0.0290,-0.0788,-0.0166
10654,-1.0074,0.0082,0.0237,-0.0443,0.0281,0.0140
10664,-1.0086,0.0121,0.0324,-0.0595,-0.0024,0.0292
10674,-1.0118,0.0104,0.0283,-0.0595,0.0281,0.0445
10684,-1.0109,0.0075,0.0278,-0.0443,-0.0940,-0.0166
10694,-1.0067,0.0102,0.0288,0.0168,-0.0940,-0.0318
10704,-1.0091,0.0073,0.0324,0.0015,-0.0330,0.0140
10714,-1.0091,0.0097,0.0319,-0.0290,0.0739,0.0140
10724,-1.0116,0.0104,0.0222,-0.0290,0.0434,-0.0471
10734,-1.0096,0.0053,0.0283,-0.0595,-0.0024,-0.0471
10744,-1.0062,0.0077,0.0278,-0.0901,0.0128,-0.0471
10754,-1.0086,0.0068,0.0307,-0.0748,0.0434,-0.0471
10764,-1.0096,0.0068,0.0261,-0.0595,0.1197,-0.0318
10774,-1.0064,0.0058,0.0239,-0.0137,0.0128,-0.0318
10784,-1.0060,0.0051,0.0310,0.0168,0.0586,-0.0318
10794,-1.0104,0.0063,0.0271,0.0015,-0.0482,0.0140
10804,-1.0067,0.0060,0.0261,0.0168,-0.0635,0.0292
10814,-1.0057,0.0073,0.0222,-0.0290,0.0281,0.0903
10824,-1.0089,0.0119,0.0235,0.0015,0.0586,0.0750
10834,-1.0077,0.0082,0.0249,0.0168,0.0892,0.0750
10844,-1.0121,0.0102,0.0230,0.1084,-0.0788,-0.0013
10854,-1.0062,0.0038,0.0181,0.1389,-0.1551,0.0140
10864,-1.0047,0.0116,0.0343,0.0626,-0.1551,-0.0166
10874,-1.0086,0.0063,0.0276,0.0015,-0.2009,-0.0166
10884,-1.0074,0.0090,0.0358,-0.0137,-0.1398,-0.0166
10894,-1.0018,0.0107,0.0312,-0.0137,-0.0482,0.0292
10904,-1.0064,0.0068,0.0239,-0.0443,-0.0177,-0.0013
10914,-1.0082,0.0085,0.0280,-0.0595,0.0739,-0.0471
10924,-1.0074,0.0077,0.0307,-0.0901,0.0128,-0.0624
10934,-1.0082,0.0055,0.0244,0.0168,0.0281,-0.0166
10944,-1.0099,0.0077,0.0288,0.0473,0.1350,0.0445
10954,-1.0104,0.0131,0.0247,0.0015,0.0739,0.0292
10964,-1.0118,0.0107,0.0210,-0.0595,0.0434,0.0445
10974,-1.0104,0.0119,0.0205,-0.0290,-0.0482,0.0140
10984,-1.0111,0.0109,0.0283,0.0321,-0.0330,0.0445
10994,-1.0099,0.0090,0.0276,0.0321,-0.0635,0.0598
11004,-1.0109,0.0090,0.0215,-0.0748,-0.0482,0.0140
11014,-1.0082,0.0119,0.0307,-0.0290,-0.0940,-0.0166
11024,-1.0050,0.0107,0.0218,0.0015,-0.0482,-0.0776
11034,-1.0047,0.0048,0.0302,0.0015,-0.0330,-0.0624
11044,-1.0064,0.0102,0.0283,0.0015,-0.0482,0.0445
11054,-1.0109,0.0075,0.0288,-0.0443,-0.0482,-0.0471
11064,-1.0096,0.0075,0.0324,-0.0595,-0.0177,0.0140
11074,-1.0040,0.0099,0.0280,-0.0901,0.0892,0.0140
11084,-1.0082,0.0041,0.0290,0.0015,0.0892,-0.0166
11094,-1.0096,0.0085,0.0280,-0.0901,0.1044,-0.0013
11104,-1.0121,0.0077,0.0285,-0.0137,-0.0024,0.0140
11114,-1.0082,0.0048,0.0334,-0.0443,0.0892,-0.0013
11124,-1.0064,0.0070,0.0256,-0.0290,0.1197,0.0292
11134,-1.0094,0.0048,0.0225,-0.1511,0.0739,0.1208
11144,-1.0069,0.0068,0.0205,-0.0443,-0.0177,0.0292
11154,-1.0067,0.0048,0.0242,0.0168,-0.0330,-0.0013
11164,-1.0084,0.0063,0.0191,0.0473,-0.0330,0.0140
11174,-1.0091,0.0077,0.0220,0.0779,-0.0635,-0.0013
11184,-1.0109,0.0124,0.0237,0.1237,-0.0330,-0.0013
11194,-1.0082,0.0126,0.0285,0.0931,-0.1246,-0.0013
11204,-1.0082,0.0136,0.0280,-0.0137,-0.1093,-0.0776
11214,-1.0079,0.0109,0.0351,-0.1053,-0.0788,-0.0166
11224,-1.0069,0.0058,0.0380,-0.0137,-0.0330,-0.0013
11234,-1.0104,0.0075,0.0317,0.0015,-0.0024,0.0292
11244,-1.0062,0.0036,0.0293,0.0168,-0.0177,0.0292
11254,-1.0064,0.0011,0.0295,-0.0901,-0.0482,-0.0013
11264,-1.0050,0.0075,0.0290,0.0168,0.0739,0.0292
11274,-1.0082,0.0051,0.0300,0.0168,0.0586,-0.0166
11284,-1.0084,0.0116,0.0251,-0.0443,0.0281,0.0445
11294,-1.0121,0.0116,0.0261,-0.0748,0.0739,0.0750
11304,-1.0099,0.0087,0.0232,-0.0595,0.0434,0.0750
11314,-1.0099,0.0119,0.0208,0.0015,0.0128,-0.0013
11324,-1.0086,0.0060,0.0293,0.0321,-0.0024,0.0140
11334,-1.0109,0.0073,0.0261,0.0015,-0.0024,-0.0929
11344,-1.0052,0.0102,0.0264,0.1237,-0.1093,-0.0318
11354,-1.0121,0.0134,0.0251,0.0779,-0.0940,0.0292
11364,-1.0096,0.0107,0.0278,-0.0290,-0.0635,-0.0318
11374,-1.0079,0.0099,0.0264,-0.0137,-0.0330,0.0445
11384,-1.0079,0.0107,0.0324,-0.0443,0.0739,-0.0013
11394,-1.0072,0.0068,0.0310,-0.0137,-0.0482,-0.0776
11404,-1.0064,0.0082,0.0297,-0.0290,-0.0330,0.0292
11414,-1.0035,0.0082,0.0317,-0.0137,-0.0177,-0.0471
11424,-1.0064,0.0107,0.0273,0.0015,0.0281,-0.0318
11434,-1.0060,0.0080,0.0317,-0.0290,-0.0177,-0.0166
11444,-1.0069,0.0121,0.0278,0.0321,0.0434,-0.0624
11454,-1.0074,0.0102,0.0300,0.0321,0.0892,-0.0318
11464,-1.0094,0.0102,0.0273,-0.0290,0.1044,0.0292
11474,-1.0084,0.0038,0.0310,-0.0290,0.0586,-0.0166
11484,-1.0111,0.0043,0.0220,-0.0443,0.0128,-0.0776
11494,-1.0113,0.0092,0.0172,-0.0443,0.0434,-0.0624
11504,-1.0091,0.0068,0.0230,-0.0137,-0.0635,0.0140
11514,-1.0077,0.0141,0.0235,0.0626,-0.0330,0.0903
11524,-1.0050,0.0080,0.0268,0.0931,-0.0482,0.0750
11534,-1.0069,0.0126,0.0256,0.0931,-0.0177,-0.0166
11544,-1.0082,0.0148,0.0247,0.0779,-0.0177,-0.0013
11554,-1.0079,0.0102,0.0297,0.0168,-0.0482,-0.0013
11564,-1.0106,0.0082,0.0244,-0.1206,-0.0635,-0.0624
11574,-1.0042,0.0060,0.0242,-0.0290,-0.0788,-0.0929
11584,-1.0082,0.0051,0.0259,-0.0137,-0.0024,-0.0624
11594,-1.0069,0.0073,0.0288,-0.0443,-0.0788,-0.0776
11604,-1.0094,0.0060,0.0293,0.0168,-0.0177,-0.0318
11614,-1.0035,0.0060,0.0193,0.0321,0.1044,0.0292
11624,-1.0153,0.0036,0.0213,-0.0290,0.0586,-0.0013
11634,-1.0077,0.0114,0.0288,-0.0595,0.0892,0.0140
11644,-1.0118,0.0114,0.0280,0.0015,0.0434,-0.0166
11654,-1.0126,0.0107,0.0235,-0.0901,0.0128,0.0140
11664,-1.0113,0.0060,0.0293,-0.0443,0.0128,0.0445
11674,-1.0057,0.0080,0.0273,-0.0595,-0.0330,-0.0166
11684,-1.0077,0.0070,0.0266,-0.0137,-0.0177,-0.0166
11694,-1.0099,0.0073,0.0336,0.0168,0.1655,-0.0318
11704,-1.0060,0.0080,0.0247,0.0168,0.0892,0.0598
11714,-1.0045,0.0053,0.0305,0.0473,0.0586,0.0292
11724,-1.0074,0.0092,0.0278,0.0626,-0.0177,0.0292
11734,-1.0106,0.0060,0.0329,-0.0137,0.0739,0.0750
11744,-1.0077,0.0119,0.0280,0.0015,0.0128,0.0445
11754,-1.0079,0.0094,0.0288,-0.0443,0.0586,-0.0318
11764,-1.0140,0.0099,0.0215,-0.0290,0.0586,-0.0013
11774,-1.0111,0.0112,0.0259,-0.0290,0.0892,0.0750
11784,-1.0109,0.0077,0.0225,0.0779,0.0434,-0.0776
11794,-1.0104,0.0092,0.0213,-0.0137,-0.0635,-0.0471
11804,-1.0060,0.0092,0.0235,-0.0595,-0.0940,-0.0929
11814,-1.0084,0.0087,0.0242,-0.0137,-0.0482,-0.0471
11824,-1.0069,0.0082,0.0339,-0.0443,-0.0482,-0.0929
11834,-1.0109,0.0026,0.0288,0.0015,-0.0482,-0.0166
11844,-1.0077,0.0055,0.0290,0.1084,-0.0788,-0.0471
11854,-1.0082,0.0094,0.0232,0.0321,-0.1398,0.0445
11864,-1.0094,0.0090,0.0276,0.0626,-0.0788,0.0445
11874,-1.0064,0.0082,0.0310,0.0015,-0.1093,0.0750
11884,-1.0033,0.0124,0.0300,0.0168,0.0128,0.0750
11894,-1.0121,0.0146,0.0288,0.0168,0.0281,0.0598
11904,-1.0057,0.0119,0.0283,-0.0137,-0.0177,-0.0318
11914,-1.0057,0.0063,0.0266,-0.0595,-0.0177,-0.1082
11924,-1.0106,0.0077,0.0225,-0.0901,-0.0635,-0.0929
11934,-1.0138,0.0031,0.0276,-0.0290,0.0434,-0.0166
11944,-1.0123,0.0068,0.0242,0.0321,-0.0482,0.0750
11954,-1.0099,0.0065,0.0278,0.0626,-0.0635,0.0445
11964,-1.0055,0.0126,0.0276,0.0473,0.0434,0.0140
11974,-1.0104,0.0112,0.0239,-0.0137,0.0128,0.0140
11984,-1.0138,0.0114,0.0264,0.0321,0.0739,0.0445
11994,-1.0096,0.0097,0.0244,-0.0443,0.0281,0.0140
12004,-1.0067,0.0046,0.0273,0.0015,-0.0177,0.0598
12014,-1.0084,0.0065,0.0239,0.0931,-0.0177,-0.0013
12024,-1.0111,0.0068,0.0220,0.0321,0.0281,-0.0318
12034,-1.0101,0.0058,0.0254,0.1084,0.0281,-0.0776
12044,-1.0079,0.0077,0.0218,0.0931,-0.0940,0.0598
12054,-1.0094,0.0119,0.0285,0.0015,0.0434,0.1056
12064,-1.0082,0.0143,0.0307,0.0168,-0.0330,0.0598
12074,-1.0077,0.0136,0.0266,-0.0290,0.0434,-0.0013
12084,-1.0082,0.0094,0.0237,0.0168,-0.0177,0.0292
12094,-1.0109,0.0124,0.0290,-0.0901,0.0128,-0.0776
12104,-1.0042,0.0141,0.0218,-0.0443,0.0434,-0.0166
12114,-1.0084,0.0107,0.0322,-0.0137,-0.0330,-0.0013
12124,-1.0094,0.0077,0.0348,0.0168,-0.0788,-0.0013
12134,-1.0084,0.0080,0.0268,-0.0290,0.0586,-0.0776
12144,-1.0096,0.0090,0.0290,-0.0748,0.0128,-0.1234
12154,-1.0089,0.0053,0.0196,0.0321,0.0128,-0.0929
12164,-1.0111,0.0075,0.0288,-0.0443,-0.0177,-0.0471
12174,-1.0106,0.0048,0.0273,-0.0595,-0.0482,-0.0166
12184,-1.0077,0.0068,0.0273,-0.0595,-0.0177,0.1056
12194,-1.0072,0.0077,0.0237,0.0321,0.0586,0.0903
12204,-1.0084,0.0065,0.0297,-0.0595,0.0281,0.0750
12214,-1.0082,0.0107,0.0239,0.0015,0.0128,-0.0166
12224,-1.0082,0.0102,0.0276,0.0321,0.0128,-0.0166
12234,-1.0077,0.0065,0.0227,0.0015,-0.0330,-0.0624
12244,-1.0096,0.0080,0.0268,-0.0748,-0.0330,-0.0776
12254,-1.0084,0.0085,0.0310,0.0015,0.0128,0.0140
12264,-1.0060,0.0080,0.0247,0.0015,-0.0940,-0.0471
12274,-1.0062,0.0099,0.0227,0.0168,0.0128,0.0445
12284,-1.0082,0.0148,0.0285,-0.0595,0.0281,0.0445
12294,-1.0050,0.0124,0.0322,0.0168,-0.0024,0.0445
12304,-1.0033,0.0107,0.0310,0.0321,0.0434,-0.0929
12314,-1.0072,0.0116,0.0348,-0.0595,0.0434,-0.0471
12324,-1.0074,0.0082,0.0339,-0.0290,0.1044,-0.0166
12334,-1.0086,0.0087,0.0370,0.0321,0.0434,-0.1082
12344,-1.0020,0.0065,0.0254,-0.0595,0.0128,-0.0624
12354,-1.0057,0.0082,0.0261,0.0168,-0.0635,-0.0929
12364,-1.0077,0.0068,0.0326,-0.0137,0.0892,-0.0166
12374,-1.0079,0.0092,0.0280,-0.0290,0.1044,0.0292
12384,-1.0082,0.0068,0.0276,-0.0595,0.0892,-0.0471
12394,-1.0101,0.0090,0.0237,-0.0443,-0.0024,-0.0166
12404,-1.0086,0.0087,0.0239,-0.0137,-0.0482,0.0292
12414,-1.0094,0.0102,0.0264,-0.0443,0.0434,-0.0013
12424,-1.0091,0.0129,0.0259,0.0321,0.0281,0.0445
12434,-1.0047,0.0107,0.0264,0.0168,0.0739,0.0598
12444,-1.0101,0.0119,0.0317,-0.0137,0.0739,-0.0318
12454,-1.0089,0.0068,0.0273,-0.0137,0.0281,0.0140
12464,-1.0123,0.0126,0.0215,0.0015,0.0128,-0.0624
12474,-1.0082,0.0080,0.0280,0.0321,-0.0482,-0.0776
12484,-1.0084,0.0051,0.0329,0.0931,-0.0940,-0.0166
12494,-1.0111,0.0068,0.0283,-0.0443,-0.0635,-0.0929
12504,-1.0099,0.0053,0.0237,-0.0595,-0.0330,-0.0471
12514,-1.0033,0.0114,0.0295,0.0015,-0.0635,-0.0776
12524,-1.0082,0.0112,0.0310,-0.0443,0.0281,-0.0624
12534,-1.0086,0.0112,0.0314,-0.0137,0.0128,-0.0776
12544,-1.0057,0.0097,0.0326,-0.0595,-0.0024,0.0903
12554,-1.0111,0.0090,0.0235,-0.0443,0.0739,0.0140
12564,-1.0094,0.0121,0.0251,0.0015,-0.0177,0.1208
12574,-1.0096,0.0063,0.0300,-0.1053,0.0739,-0.0318
12584,-1.0077,0.0077,0.0251,-0.0137,0.1197,-0.0013
12594,-1.0089,0.0107,0.0280,0.0015,0.0892,0.0140
12604,-1.0109,0.0082,0.0273,-0.0595,0.1044,0.0903
12614,-1.0091,0.0038,0.0264,0.0473,0.0739,0.0750
12624,-1.0086,0.0075,0.0278,0.0168,0.0128,-0.0318
12634,-1.0082,0.0019,0.0213,-0.0137,-0.0330,0.0445
12644,-1.0084,0.0043,0.0225,0.0779,-0.0788,0.0140
12654,-1.0113,0.0063,0.0295,0.0321,-0.0177,0.0445
12664,-1.0111,0.0070,0.0276,-0.1053,-0.0177,-0.0318
12674,-1.0082,0.0060,0.0276,-0.0290,-0.0330,-0.0318
12684,-1.0047,0.0073,0.0285,-0.0137,-0.0788,0.0140
12694,-1.0077,0.0053,0.0247,0.0015,-0.0330,-0.0166
12704,-1.0099,0.0080,0.0317,0.0168,0.0281,0.0140
12714,-1.0101,0.0116,0.0276,0.0321,-0.0177,0.0598
12724,-1.0084,0.0087,0.0329,0.0168,-0.0330,0.0292
12734,-1.0067,0.0073,0.0276,0.0321,-0.0024,0.0292
12744,-1.0143,0.0102,0.0261,0.0321,-0.0177,-0.0166
12754,-1.0064,0.0082,0.0268,-0.0290,-0.0482,0.0292
12764,-1.0084,0.0129,0.0239,0.0168,-0.0940,0.0445
12774,-1.0094,0.0099,0.0276,0.0168,0.0128,0.0598
12784,-1.0099,0.0124,0.0290,0.0321,0.0281,-0.0013
12794,-1.0101,0.0116,0.0273,-0.0290,0.0739,-0.0013
12804,-1.0109,0.0077,0.0205,-0.0443,0.0281,0.0140
12814,-1.0116,0.0070,0.0244,-0.0901,0.0128,-0.0776
12824,-1.0126,0.0092,0.0293,-0.1053,0.0281,0.0292
12834,-1.0069,0.0129,0.0353,-0.1206,0.0128,-0.0318
12844,-1.0136,0.0058,0.0208,-0.0748,-0.0482,-0.0166
12854,-1.0064,0.0077,0.0293,-0.0137,-0.0024,0.0292
12864,-1.0062,0.0068,0.0290,0.0015,-0.0330,0.0445
12874,-1.0099,0.0094,0.0276,0.0015,0.0586,-0.0318
12884,-1.0086,0.0063,0.0293,-0.0290,-0.0177,0.0292
12894,-1.0091,0.0092,0.0283,0.0168,-0.0024,-0.0166
12904,-1.0079,0.0112,0.0273,0.0321,0.0128,-0.1082
12914,-1.0082,0.0073,0.0310,0.0779,-0.0024,-0.0318
12924,-1.0089,0.0102,0.0251,0.0015,0.0281,-0.0013
12934,-1.0064,0.0099,0.0266,-0.0901,-0.0177,0.0292
12944,-1.0052,0.0053,0.0280,-0.1511,-0.0330,-0.1234
12954,-1.0062,0.0055,0.0268,-0.0901,-0.0482,-0.1082
12964,-1.0113,0.0033,0.0266,-0.1206,0.0128,-0.0318
12974,-1.0089,0.0051,0.0254,-0.0443,0.0739,-0.0318
12984,-1.0072,0.0085,0.0230,0.0168,0.0281,0.0292
12994,-1.0091,0.0102,0.0235,0.0626,0.0434,0.0292
13004,-1.0126,0.0107,0.0222,-0.0137,0.0281,0.0445
13014,-1.0104,0.0070,0.0225,-0.0290,-0.0177,0.0292
13024,-1.0089,0.0080,0.0302,0.0015,-0.0330,-0.0166
13034,-1.0096,0.0058,0.0271,-0.0748,-0.0024,-0.0318
13044,-1.0084,0.0055,0.0247,0.0168,-0.0482,0.0445
13054,-1.0121,0.0055,0.0203,0.0931,-0.0940,0.0445
13064,-1.0109,0.0082,0.0285,0.0168,-0.1246,0.0598
13074,-1.0052,0.0112,0.0276,0.0168,-0.0940,0.0292
13084,-1.0037,0.0131,0.0317,0.0626,-0.1093,-0.0318
13094,-1.0037,0.0104,0.0288,0.0779,-0.1246,-0.0624
13104,-1.0121,0.0097,0.0276,-0.0443,0.0434,-0.0166
13114,-1.0104,0.0085,0.0297,-0.0595,-0.0177,-0.0013
13124,-1.0099,0.0073,0.0244,-0.0290,-0.0177,0.0292
13134,-1.0069,0.0046,0.0273,0.0473,0.0128,-0.1387
13144,-1.0052,0.0070,0.0276,0.0779,-0.0330,-0.0318
13154,-1.0126,0.0104,0.0268,0.1389,-0.0330,-0.0013
13164,-1.0136,0.0148,0.0230,0.1084,-0.0940,0.0598
13174,-1.0077,0.0080,0.0264,-0.0290,-0.0330,0.0445
13184,-1.0106,0.0129,0.0305,-0.0748,-0.0635,-0.0166
13194,-1.0069,0.0075,0.0317,-0.0443,-0.0177,0.0140
13204,-1.0040,0.0080,0.0259,-0.0595,0.0434,-0.0624
13214,-1.0077,0.0087,0.0310,-0.1206,0.0434,-0.0013
13224,-1.0091,0.0080,0.0336,0.0015,0.0128,0.0445
13234,-1.0118,0.0055,0.0264,-0.0443,0.0434,-0.0166
13244,-1.0111,0.0131,0.0230,0.0779,-0.0177,-0.0776
13254,-1.0096,0.0129,0.0244,0.0168,0.0128,-0.0166
13264,-1.0047,0.0112,0.0210,-0.0595,0.0586,-0.1082
13274,-1.0101,0.0065,0.0288,-0.0901,0.0586,0.0140
13284,-1.0106,0.0068,0.0285,-0.0748,0.0128,-0.0166
13294,-1.0069,0.0038,0.0235,-0.0443,-0.0024,0.0750
13304,-1.0052,0.0031,0.0261,0.0015,-0.0788,-0.0624
13314,-1.0096,0.0041,0.0251,0.0473,-0.0330,-0.0166
13324,-1.0126,0.0029,0.0242,0.0779,0.0128,-0.0318
13334,-1.0123,0.0085,0.0215,-0.0137,0.0586,0.0598
13344,-1.0094,0.0075,0.0251,0.0015,-0.0788,-0.0013
13354,-1.0084,0.0099,0.0280,-0.0443,-0.1246,-0.0166
13364,-1.0089,0.0077,0.0213,-0.0290,-0.0330,-0.0318
13374,-1.0099,0.0104,0.0314,-0.0443,-0.0788,0.1056
13384,-1.0113,0.0048,0.0300,-0.0290,0.0128,-0.0166
13394,-1.0111,0.0082,0.0227,-0.0748,-0.0788,0.0140
13404,-1.0074,0.0131,0.0283,0.0015,-0.0635,-0.0624
13414,-1.0084,0.0075,0.0331,-0.0290,0.0128,-0.0776
13424,-1.0089,0.0087,0.0307,0.0168,-0.0330,-0.1082
13434,-1.0079,0.0068,0.0230,-0.0137,-0.0482,-0.0166
13444,-1.0084,0.0090,0.0317,-0.0595,-0.0330,-0.0929
13454,-1.0091,0.0082,0.0266,-0.0443,-0.0024,-0.0013
13464,-1.0042,0.0063,0.0230,0.0321,-0.0177,-0.0776
13474,-1.0128,0.0082,0.0285,-0.0443,-0.0024,-0.0166
13484,-1.0101,0.0055,0.0295,-0.0137,-0.0177,-0.0471
13494,-1.0082,0.0060,0.0285,0.0473,0.0128,0.0445
13504,-1.0104,0.0112,0.0334,0.0321,0.0281,-0.0624
13514,-1.0064,0.0036,0.0259,-0.0595,0.0739,0.0598
13524,-1.0099,0.0087,0.0280,-0.0290,0.0586,0.0292
13534,-1.0052,0.0046,0.0276,-0.1053,0.0739,-0.0318
13544,-1.0069,0.0055,0.0232,-0.0443,0.0586,-0.0318
13554,-1.0057,0.0026,0.0271,0.0168,0.0586,-0.0013
13564,-1.0082,0.0063,0.0244,-0.1206,0.0739,0.0445
13574,-1.0116,0.0060,0.0244,-0.0137,0.0739,0.1208
13584,-1.0060,0.0046,0.0239,-0.0290,-0.0177,0.1056
13594,-1.0094,0.0116,0.0235,0.0473,-0.0177,0.0292
13604,-1.0116,0.0131,0.0295,0.0015,-0.0330,0.0292
13614,-1.0067,0.0109,0.0205,0.0168,0.0128,-0.0776
13624,-1.0086,0.0131,0.0213,0.0626,-0.0635,-0.0166
13634,-1.0072,0.0085,0.0288,0.0779,-0.0482,-0.0013
13644,-1.0067,0.0065,0.0232,0.0015,-0.0177,-0.0929
13654,-1.0064,0.0092,0.0310,0.0015,-0.0330,-0.0166
13664,-1.0099,0.0075,0.0307,-0.0290,-0.0024,0.0292
13674,-1.0062,0.0085,0.0346,-0.0595,-0.0024,-0.0166
13684,-1.0094,0.0085,0.0276,0.0015,-0.0940,-0.0013
13694,-1.0064,0.0077,0.0331,0.0931,-0.0635,0.0445
13704,-1.0050,0.0094,0.0360,0.0015,0.0128,-0.0166
13714,-1.0074,0.0092,0.0278,-0.0595,0.0586,-0.0624
13724,-1.0069,0.0119,0.0329,0.0473,0.0281,0.0140
13734,-1.0064,0.0104,0.0329,0.0321,-0.0482,-0.0471
13744,-1.0072,0.0090,0.0293,-0.0290,0.1044,-0.0166
13754,-1.0106,0.0121,0.0280,0.0015,0.1197,-0.0013
13764,-1.0062,0.0121,0.0244,-0.0443,0.0892,0.0140
13774,-1.0086,0.0082,0.0220,-0.0748,0.0739,-0.0013
13784,-1.0082,0.0055,0.0300,-0.0748,0.0739,-0.0624
13794,-1.0133,0.0090,0.0193,-0.0443,0.0892,-0.0013
13804,-1.0072,0.0046,0.0227,-0.0290,-0.0940,-0.0166
13814,-1.0072,0.0092,0.0273,0.0321,-0.0788,-0.0318
13824,-1.0104,0.0068,0.0232,0.0015,0.0128,0.0445
13834,-1.0133,0.0077,0.0235,-0.0290,-0.0330,-0.0318
13844,-1.0089,0.0141,0.0293,-0.0290,-0.1093,0.0292
13854,-1.0067,0.0104,0.0392,-0.0443,-0.0940,-0.0624
13864,-1.0069,0.0107,0.0339,0.0473,-0.0788,0.0140
13874,-1.0060,0.0094,0.0280,0.0473,-0.0482,-0.0013
13884,-1.0077,0.0112,0.0317,0.0473,-0.0177,-0.0013
13894,-1.0069,0.0085,0.0360,-0.0137,-0.0024,-0.0471
13904,-1.0096,0.0097,0.0244,0.0168,-0.0024,-0.0471
13914,-1.0060,0.0033,0.0322,-0.0290,0.0434,-0.0929
13924,-1.0109,0.0041,0.0297,-0.0748,0.0892,0.0292
13934,-1.0077,0.0038,0.0288,-0.0443,0.1655,-0.0166
13944,-1.0045,0.0038,0.0244,0.0015,0.1502,0.0445
13954,-1.0084,0.0077,0.0225,-0.0137,0.0434,0.0140
13964,-1.0089,0.0090,0.0230,-0.0290,0.0281,0.0140
13974,-1.0099,0.0094,0.0215,0.0321,0.0128,0.0140
13984,-1.0126,0.0119,0.0210,0.0931,-0.0024,0.0750
13994,-1.0109,0.0058,0.0225,0.0321,-0.0940,0.0445
14004,-1.0123,0.0094,0.0235,0.0321,-0.1704,0.0750
14014,-1.0118,0.0085,0.0264,0.0931,-0.1398,0.1056
14024,-1.0064,0.0075,0.0225,0.0931,-0.2009,0.0445
14034,-1.0121,0.0124,0.0264,0.0168,-0.1398,-0.0166
14044,-1.0086,0.0090,0.0326,0.0168,-0.1398,-0.1234
14054,-1.0045,0.0065,0.0314,0.0015,-0.0788,-0.1082
14064,-1.0045,0.0114,0.0358,0.0168,-0.1093,-0.0929
14074,-1.0052,0.0060,0.0334,0.0015,-0.0635,-0.0013
14084,-1.0082,0.0077,0.0319,0.0321,-0.0024,-0.0318
14094,-1.0064,0.0094,0.0326,0.0473,-0.0330,0.0445
14104,-1.0062,0.0060,0.0384,-0.0137,0.0434,-0.0624
14114,-1.0106,0.0043,0.0283,-0.1053,0.1960,-0.0471
14124,-1.0104,0.0073,0.0293,-0.1206,0.1350,0.0140
14134,-1.0121,0.0082,0.0198,-0.0595,0.0739,-0.0013
14144,-1.0084,0.0073,0.0225,-0.0748,0.1502,0.0292
14154,-1.0091,0.0114,0.0254,-0.0901,0.1808,-0.0166
14164,-1.0140,0.0102,0.0176,-0.0443,0.1044,0.0445
14174,-1.0123,0.0126,0.0167,0.0779,0.0128,-0.0013
14184,-1.0074,0.0126,0.0235,0.0168,-0.0482,-0.0318
14194,-1.0136,0.0090,0.0256,0.0168,-0.1093,-0.1082
14204,-1.0096,0.0107,0.0268,0.0473,-0.0940,-0.0624
14214,-1.0067,0.0082,0.0278,-0.0137,-0.1398,-0.0166
14224,-1.0074,0.0058,0.0293,-0.0137,-0.1246,0.0140
14234,-1.0060,0.0119,0.0278,-0.0137,-0.0635,-0.0471
14244,-1.0101,0.0058,0.0268,-0.0443,-0.0788,-0.0776
14254,-1.0023,0.0046,0.0322,-0.0137,0.0128,-0.0013
14264,-1.0096,0.0021,0.0317,0.0473,-0.0635,0.0445
14274,-1.0072,0.0090,0.0317,0.0321,0.0739,0.0292
14284,-1.0084,0.0031,0.0307,-0.0595,0.0892,0.0292
14294,-1.0106,0.0094,0.0314,-0.0748,0.0892,0.1056
14304,-1.0074,0.0107,0.0312,-0.1359,0.0434,0.0598
14314,-1.0089,0.0090,0.0276,-0.0748,0.0434,0.1361
14324,-1.0047,0.0119,0.0203,-0.0290,0.0434,0.1361
14334,-1.0121,0.0131,0.0230,-0.0901,0.0586,0.1208
14344,-1.0136,0.0134,0.0295,0.0168,0.1044,0.0903
14354,-1.0077,0.0129,0.0218,0.0168,0.0892,0.0445
14364,-1.0072,0.0097,0.0239,0.0779,0.0586,-0.0166
14374,-1.0140,0.0090,0.0261,-0.0443,-0.0177,-0.0471
14384,-1.0101,0.0063,0.0283,-0.0595,-0.0788,-0.0318
14394,-1.0074,0.0051,0.0256,0.0321,-0.1704,-0.0318
14404,-1.0086,0.0038,0.0276,0.0015,-0.1246,-0.0471
14414,-1.0069,0.0097,0.0273,0.0626,-0.1246,0.0445
14424,-1.0069,0.0119,0.0259,0.0779,-0.0177,0.0445
14434,-1.0052,0.0099,0.0297,0.0473,-0.1856,-0.0318
14444,-1.0042,0.0099,0.0365,-0.0290,-0.0635,-0.0776
14454,-1.0062,0.0102,0.0254,-0.0443,0.0586,-0.0013
14464,-1.0064,0.0041,0.0254,-0.0443,-0.0482,0.0445
14474,-1.0094,0.0048,0.0268,-0.0748,0.0434,0.0445
14484,-1.0042,0.0058,0.0355,-0.0901,0.0586,0.0292
14494,-1.0052,0.0068,0.0285,-0.0290,0.0739,0.1208
14504,-1.0077,0.0124,0.0302,-0.0137,0.0586,0.0140
14514,-1.0089,0.0082,0.0278,-0.0137,0.0434,0.1056
14524,-1.0111,0.0090,0.0230,-0.0595,-0.0024,0.0292
14534,-1.0089,0.0080,0.0288,0.0779,-0.0024,-0.0013
14544,-1.0096,0.0102,0.0249,-0.0595,0.0739,-0.0471
14554,-1.0096,0.0048,0.0305,0.0779,0.0739,-0.0166
14564,-1.0116,0.0092,0.0256,0.0626,0.0128,-0.0318
14574,-1.0072,0.0053,0.0329,-0.0137,0.0281,0.0140
14584,-1.0064,0.0065,0.0280,-0.0290,-0.0330,0.0598
14594,-1.0104,0.0075,0.0264,-0.0748,-0.0635,0.0292
14604,-1.0069,0.0116,0.0293,-0.1359,0.0281,-0.0624
14614,-1.0082,0.0090,0.0331,-0.0595,0.0128,0.0445
14624,-1.0082,0.0082,0.0264,0.0168,-0.0482,-0.0013
14634,-1.0126,0.0097,0.0247,-0.0748,-0.0482,0.0445
14644,-1.0072,0.0080,0.0254,0.0015,-0.1246,-0.0318
14654,-1.0104,0.0090,0.0237,0.0321,-0.0788,-0.0013
14664,-1.0118,0.0075,0.0249,-0.0290,-0.0940,0.0445
14674,-1.0077,0.0094,0.0271,-0.0595,-0.0940,0.0445
14684,-1.0052,0.0053,0.0300,-0.0443,0.0128,-0.0013
14694,-1.0118,0.0085,0.0261,-0.1664,0.0739,0.0140
14704,-1.0116,0.0082,0.0302,-0.0595,0.1350,0.0750
14714,-1.0094,0.0060,0.0266,0.0168,0.0434,0.0292
14724,-1.0047,0.0119,0.0264,0.1084,-0.0635,0.0140
14734,-1.0055,0.0097,0.0276,0.1084,0.0281,-0.0166
14744,-1.0109,0.0060,0.0266,0.0473,0.0434,-0.0624
14754,-1.0123,0.0087,0.0220,-0.0595,0.0586,-0.0929
14764,-1.0094,0.0080,0.0297,-0.0137,-0.0330,0.0140
14774,-1.0084,0.0038,0.0295,-0.1206,-0.0788,-0.0776
14784,-1.0079,0.0014,0.0256,-0.0443,-0.0635,-0.0013
14794,-1.0047,0.0031,0.0239,-0.0137,-0.0177,0.1208
14804,-1.0121,0.0063,0.0232,0.0015,0.0128,0.0903
14814,-1.0136,0.0119,0.0210,-0.0137,-0.0024,0.0140
14824,-1.0104,0.0148,0.0290,-0.0290,-0.0024,-0.0013
14834,-1.0062,0.0151,0.0254,-0.0290,-0.0940,-0.0013
14844,-1.0084,0.0109,0.0222,-0.0137,-0.1246,0.0903
14854,-1.0086,0.0107,0.0242,-0.0290,-0.0940,0.1361
14864,-1.0074,0.0104,0.0271,-0.0137,-0.0177,0.0140
14874,-1.0113,0.0068,0.0310,0.0168,-0.0024,0.0140
14884,-1.0079,0.0129,0.0268,0.0015,0.0128,-0.0776
14894,-1.0099,0.0087,0.0310,0.0321,-0.0330,-0.1692
14904,-1.0089,0.0090,0.0307,0.0473,-0.0482,-0.0776
14914,-1.0079,0.0136,0.0295,-0.0290,0.0128,-0.0776
14924,-1.0099,0.0085,0.0319,-0.0443,-0.0024,-0.0013
14934,-1.0084,0.0011,0.0283,0.0015,0.0434,0.0292
14944,-1.0072,0.0011,0.0302,-0.0137,-0.0024,0.0140
14954,-1.0072,0.0048,0.0331,0.0473,-0.0024,0.1056
14964,-1.0074,0.0026,0.0288,0.0321,-0.0024,0.1208
14974,-1.0077,0.0085,0.0242,0.0473,0.0434,0.0598
14984,-1.0077,0.0134,0.0218,0.0168,0.0892,0.0140
14994,-1.0094,0.0109,0.0254,-0.1053,0.0739,0.0750
15004,-1.0067,0.0011,0.0218,-0.1359,0.0128,0.0903
15014,-1.0165,0.0053,0.0131,-0.0443,-0.0635,0.1361
15024,-1.0074,0.0038,0.0186,0.0779,-0.1093,0.0140
15034,-1.0055,0.0080,0.0208,0.1542,-0.1551,0.0140
15044,-1.0062,0.0153,0.0230,0.0321,0.0434,0.0445
15054,-1.0064,0.0126,0.0302,0.1237,-0.0788,0.0140
15064,-1.0057,0.0155,0.0273,0.0626,-0.0788,0.0292
15074,-1.0082,0.0185,0.0339,0.0015,-0.1551,0.0598
15084,-1.0074,0.0124,0.0256,-0.0901,-0.0330,0.0445
15094,-1.0082,0.0092,0.0343,-0.0290,-0.0635,-0.0166
15104,-1.0077,0.0077,0.0271,-0.0748,0.0128,-0.0776
15114,-1.0072,0.0055,0.0271,-0.0290,-0.0024,-0.0929
15124,-1.0045,0.0085,0.0288,-0.0443,0.0892,-0.0318
15134,-1.0077,0.0055,0.0300,0.0015,0.1502,-0.0471
15144,-1.0055,0.0080,0.0239,-0.0901,0.1197,0.0598
15154,-1.0060,0.0070,0.0276,-0.1511,0.0892,0.0292
15164,-1.0077,0.0019,0.0261,-0.1206,0.0586,0.0598
15174,-1.0055,0.0055,0.0203,-0.1359,0.0892,0.1056
15184,-1.0148,0.0109,0.0198,-0.0595,0.0892,0.0750
15194,-1.0109,0.0094,0.0259,-0.0443,0.0434,0.0140
15204,-1.0106,0.0158,0.0264,0.0626,-0.0024,0.0140
15214,-1.0126,0.0177,0.0247,0.0626,-0.0177,0.0140
15224,-1.0118,0.0141,0.0280,0.0168,-0.0635,0.0750
15234,-1.0060,0.0087,0.0256,0.0168,-0.0177,-0.0013
15244,-1.0106,0.0077,0.0249,0.0473,-0.0482,0.0292
15254,-1.0074,0.0063,0.0314,-0.0748,-0.0940,-0.0776
15264,-1.0062,0.0016,0.0242,-0.0290,-0.1398,-0.1082
15274,-1.0067,0.0085,0.0283,-0.0290,-0.1093,-0.0624
15284,-1.0133,0.0094,0.0283,0.0779,-0.0330,-0.0318
15294,-1.0096,0.0129,0.0259,0.0779,-0.0482,-0.0318
15304,-1.0126,0.0099,0.0285,0.0168,-0.0024,0.0140
15314,-1.0077,0.0121,0.0300,-0.1053,-0.0024,0.0140
15324,-1.0060,0.0082,0.0319,-0.0443,0.0281,0.0292
15334,-1.0074,0.0068,0.0312,-0.0290,0.0586,-0.0013
15344,-1.0060,0.0085,0.0249,0.0015,0.1044,0.0598
15354,-1.0096,0.0041,0.0293,-0.0595,0.0586,0.0598
15364,-1.0079,0.0070,0.0179,0.0168,0.0128,-0.0013
15374,-1.0118,0.0094,0.0268,0.0168,0.0739,0.0292
15384,-1.0126,0.0119,0.0230,-0.0137,0.0128,0.0750
15394,-1.0079,0.0104,0.0237,0.0015,0.0434,0.1056
15404,-1.0106,0.0082,0.0319,-0.0748,0.0892,0.0903
15414,-1.0091,0.0063,0.0152,0.0015,0.0586,-0.0013
15424,-1.0101,0.0099,0.0312,-0.0443,0.0128,-0.0166
15434,-1.0084,0.0107,0.0239,0.0626,0.0739,-0.0166
15444,-1.0077,0.0165,0.0259,0.0931,0.0434,-0.1082
15454,-1.0079,0.0141,0.0237,0.0931,0.0434,-0.1082
15464,-1.0067,0.0112,0.0278,-0.0748,0.0434,-0.0776
15474,-1.0111,0.0070,0.0230,-0.0748,0.0434,-0.0471
15484,-1.0123,0.0055,0.0271,-0.1511,-0.0024,-0.0318
15494,-1.0052,0.0031,0.0254,-0.0901,-0.0024,-0.0929
15504,-1.0069,0.0029,0.0297,0.0473,0.0128,0.0292
15514,-1.0096,0.0029,0.0145,0.0931,0.0128,0.0140
15524,-1.0104,0.0099,0.0249,0.1389,0.0128,0.0140
15534,-1.0113,0.0097,0.0205,0.0779,-0.1551,0.0750
15544,-1.0086,0.0121,0.0230,0.0473,-0.0940,-0.0166
15554,-1.0126,0.0099,0.0280,-0.0137,-0.1093,0.0445
15564,-1.0106,0.0080,0.0312,0.0321,-0.0482,0.1056
15574,-1.0084,0.0073,0.0227,-0.0290,-0.0635,0.0445
15584,-1.0057,0.0053,0.0285,0.0931,-0.1551,0.0140
15594,-1.0096,0.0099,0.0319,0.1084,-0.1856,-0.0471
15604,-1.0077,0.0082,0.0300,0.0931,-0.1246,-0.1387
15614,-1.0077,0.0124,0.0389,0.0473,-0.1093,-0.1082
15624,-1.0099,0.0121,0.0312,0.0168,-0.0177,-0.0776
15634,-1.0077,0.0146,0.0317,-0.0748,0.0128,-0.1692
15644,-1.0045,0.0112,0.0271,-0.1206,0.0128,-0.0624
15654,-1.0116,0.0063,0.0276,-0.0595,0.1044,-0.0318
15664,-1.0089,0.0065,0.0273,0.0015,0.1044,-0.0166
15674,-1.0057,0.0060,0.0273,0.0168,0.1044,-0.0318
15684,-1.0037,0.0099,0.0244,0.0321,0.0434,0.0598
15694,-1.0140,0.0065,0.0184,0.0321,0.1197,0.0903
15704,-1.0082,0.0094,0.0167,0.0626,0.0281,0.0598
15714,-1.0079,0.0143,0.0278,0.0931,0.1197,0.1056
15724,-1.0077,0.0087,0.0244,0.0015,0.1044,0.1819
15734,-1.0126,0.0119,0.0276,-0.0748,-0.0024,0.0750
15744,-1.0045,0.0134,0.0353,-0.0748,0.0128,0.0445
15754,-1.0101,0.0109,0.0276,-0.0137,-0.0482,-0.0013
15764,-1.0084,0.0121,0.0341,0.0473,0.0586,-0.0318
15774,-1.0094,0.0134,0.0254,0.0626,0.0281,0.0140
15784,-1.0101,0.0102,0.0329,0.0015,-0.0024,-0.0318
15794,-1.0062,0.0124,0.0317,-0.0595,-0.0482,-0.0776
15804,-1.0069,0.0048,0.0259,-0.0443,-0.0330,-0.1540
15814,-1.0077,0.0007,0.0278,-0.0443,0.0739,-0.0624
15824,-1.0109,0.0016,0.0220,-0.0595,0.0281,-0.0471
15834,-1.0094,0.0033,0.0288,-0.1359,0.0586,-0.0013
15844,-1.0086,0.0063,0.0312,-0.1053,0.0434,-0.0471
15854,-1.0096,0.0058,0.0242,-0.0137,0.0739,0.0292
15864,-1.0067,0.0099,0.0205,0.0779,0.0434,-0.0471
15874,-1.0109,0.0119,0.0205,0.0168,0.0739,0.0140
15884,-1.0094,0.0136,0.0237,-0.0443,0.0434,0.0140
15894,-1.0136,0.0131,0.0215,-0.0290,-0.0177,0.0292
15904,-1.0079,0.0114,0.0254,-0.0137,-0.0788,0.0140
15914,-1.0077,0.0070,0.0256,0.0015,-0.0482,0.0292
15924,-1.0104,0.0051,0.0280,-0.0595,-0.1093,0.0140
15934,-1.0131,0.0075,0.0346,0.1084,-0.0024,-0.0318
15944,-1.0101,0.0087,0.0290,0.1084,-0.0330,-0.0318
15954,-1.0050,0.0124,0.0283,0.0779,-0.0177,-0.0471
15964,-1.0072,0.0114,0.0341,0.0473,0.0128,-0.0471
15974,-1.0079,0.0065,0.0343,0.0473,0.0586,-0.0929
15984,-1.0074,0.0090,0.0239,-0.1206,0.0281,-0.0776
15994,-1.0123,0.0051,0.0276,-0.1359,0.0128,-0.0929
16004,-1.0109,0.0024,0.0237,-0.0748,0.0434,-0.0013
16014,-1.0057,-0.0010,0.0225,-0.0443,0.0434,0.0292
16024,-1.0067,0.0036,0.0237,0.0473,0.0892,0.0445
16034,-1.0091,0.0082,0.0264,0.0321,0.0892,0.0750
16044,-1.0136,0.0158,0.0297,0.1084,0.1044,0.1514
16054,-1.0113,0.0134,0.0254,0.0626,-0.0482,0.1361
16064,-1.0099,0.0136,0.0237,0.0321,0.0128,0.0598
16074,-1.0118,0.0080,0.0271,-0.0901,-0.0024,0.0292
16084,-1.0101,0.0087,0.0239,-0.1206,-0.0788,0.0598
16094,-1.0062,0.0075,0.0300,-0.0748,-0.0482,0.0140
16104,-1.0104,0.0080,0.0251,-0.0290,0.0281,-0.0013
16114,-1.0084,0.0092,0.0256,0.1389,0.0434,-0.0624
16124,-1.0082,0.0102,0.0256,0.1237,0.0128,-0.1234
16134,-1.0079,0.0090,0.0273,0.1084,-0.0177,-0.1082
16144,-1.0079,0.0094,0.0244,-0.0137,0.0128,-0.0929
16154,-1.0067,0.0068,0.0276,-0.0290,0.0128,-0.1387
16164,-1.0131,0.0011,0.0312,-0.0290,-0.0177,-0.0929
