timestamp_ms,ax,ay,az,gx,gy,gz
3964,0.9981,0.0102,-0.0177,-0.0227,0.0342,-0.0589
3974,0.9981,0.0136,-0.0094,0.0536,-0.0116,-0.0895
3984,1.0044,0.0107,-0.0131,0.0994,0.0342,0.0174
3994,1.0025,0.0080,-0.0136,0.0231,0.0189,0.0632
4004,0.9963,0.0141,-0.0143,0.0078,0.1258,0.1701
4014,1.0017,0.0119,-0.0133,-0.0227,0.0495,0.0021
4024,1.0008,0.0099,-0.0131,0.0994,0.0342,-0.0284
4034,1.0000,0.0077,-0.0169,0.0841,0.0647,-0.0131
4044,1.0022,0.0080,-0.0131,-0.0685,0.0037,0.0021
4054,1.0008,0.0112,-0.0087,-0.0075,-0.0116,0.0785
4064,1.0037,0.0087,-0.0136,0.0078,0.0647,0.0632
4074,0.9966,0.0051,-0.0114,-0.0533,0.0495,-0.0589
4084,1.0020,0.0077,-0.0177,-0.0533,-0.0116,-0.0131
4094,0.9990,0.0099,-0.0133,0.0078,0.0189,-0.0437
4104,1.0017,0.0099,-0.0194,0.0383,-0.0574,-0.0131
4114,1.0022,0.0085,-0.0203,0.0231,0.0189,-0.0131
4124,0.9995,0.0090,-0.0102,0.0231,-0.0421,-0.0131
4134,1.0035,0.0124,-0.0186,-0.0075,-0.0116,-0.0131
4144,1.0017,0.0141,-0.0056,-0.0533,0.0189,-0.0131
4154,0.9959,0.0121,-0.0136,-0.0380,-0.0421,0.0937
4164,0.9995,0.0104,-0.0194,-0.0227,-0.0116,-0.0284
4174,1.0008,0.0092,-0.0196,-0.0075,-0.0421,-0.0131
4184,1.0015,0.0085,-0.0109,0.0231,0.0495,0.0479
4194,1.0052,0.0104,-0.0123,0.0078,-0.0421,0.1090
4204,1.0042,0.0107,-0.0143,0.0383,0.0037,0.0785
4214,1.0017,0.0092,-0.0145,0.0078,0.0037,0.0785
4224,1.0005,0.0068,-0.0138,0.0231,-0.0574,0.1090
4234,1.0086,0.0075,-0.0102,-0.0075,-0.0574,0.1243
4244,1.0035,0.0077,-0.0172,0.0231,-0.0727,0.1090
4254,1.0020,0.0090,-0.0090,0.0994,-0.0421,0.0327
4264,0.9946,0.0116,-0.0136,0.0383,-0.0574,-0.0284
4274,0.9973,0.0116,-0.0136,-0.0075,-0.0574,-0.0131
4284,1.0027,0.0092,-0.0094,-0.0227,-0.0727,0.0021
4294,0.9990,0.0116,-0.0075,-0.0533,-0.0574,-0.0284
4304,1.0054,0.0119,-0.0152,-0.0533,0.0037,-0.0742
4314,1.0020,0.0107,-0.0111,-0.0227,-0.0879,0.0479
4324,0.9995,0.0080,-0.0150,-0.0533,-0.0727,0.0174
4334,1.0022,0.0143,-0.0092,-0.0685,-0.0421,-0.0589
4344,0.9990,0.0155,-0.0162,-0.0380,-0.0421,-0.0131
4354,1.0010,0.0092,-0.0138,-0.0075,-0.0574,0.0937
4364,1.0020,0.0121,-0.0082,-0.0380,0.0037,-0.0131
4374,1.0025,0.0124,-0.0090,-0.0227,-0.0269,0.0327
4384,1.0013,0.0094,-0.0155,-0.0227,0.0189,0.0327
4394,1.0037,0.0119,-0.0119,0.0231,-0.1032,0.0479
4404,1.0027,0.0099,-0.0138,-0.0685,-0.0727,0.0174
4414,1.0022,0.0065,-0.0082,-0.0075,-0.0727,0.0327
4424,1.0000,0.0085,-0.0203,0.0383,-0.0574,-0.0589
4434,1.0049,0.0107,-0.0126,0.0536,-0.0269,-0.0742
4444,1.0025,0.0055,-0.0169,0.0231,0.0189,-0.0895
4454,1.0027,0.0138,-0.0167,-0.0533,-0.0269,-0.1047
4464,0.9995,0.0141,-0.0107,-0.0380,0.0647,-0.0589
4474,1.0008,0.0094,-0.0184,0.0231,-0.0269,-0.0589
4484,1.0015,0.0107,-0.0116,0.0231,0.0037,-0.0284
4494,1.0017,0.0077,-0.0230,0.0383,-0.0574,0.0785
4504,1.0057,0.0099,-0.0116,0.0383,-0.0421,0.0174
4514,1.0030,0.0082,-0.0121,0.0231,-0.0269,-0.0131
4524,1.0003,0.0065,-0.0145,-0.0685,-0.1337,0.0174
4534,1.0008,0.0112,-0.0073,-0.0075,-0.0421,0.0632
4544,0.9983,0.0102,-0.0070,-0.0533,-0.0269,0.0937
4554,1.0025,0.0099,-0.0092,0.0231,0.0037,0.0174
4564,1.0030,0.0075,-0.0155,-0.0380,0.0495,0.0174
4574,0.9981,0.0090,-0.0116,-0.0075,-0.0269,-0.0742
4584,1.0027,0.0058,-0.0082,-0.0075,-0.0421,0.0021
4594,0.9983,0.0085,-0.0109,0.0383,-0.0421,-0.0131
4604,1.0057,0.0090,-0.0085,-0.0075,-0.0116,-0.0437
4614,1.0032,0.0107,-0.0116,0.0383,-0.0574,0.0632
4624,1.0025,0.0092,-0.0119,0.0383,-0.0879,-0.0895
4634,1.0000,0.0114,-0.0152,0.0383,-0.1337,0.0021
4644,1.0027,0.0114,-0.0160,0.0536,-0.1032,0.0174
4654,1.0013,0.0099,-0.0111,0.0078,0.0189,0.0174
4664,1.0027,0.0099,-0.0184,0.0536,-0.1337,-0.0589
4674,1.0005,0.0102,-0.0119,0.0536,-0.0269,-0.0742
4684,0.9998,0.0063,-0.0082,-0.0533,0.1258,-0.0437
4694,1.0005,0.0090,-0.0133,-0.0991,0.0037,-0.0284
4704,1.0044,0.0099,-0.0169,-0.0227,-0.0269,-0.0131
4714,1.0030,0.0119,-0.0162,-0.0533,-0.0116,-0.0131
4724,1.0005,0.0087,-0.0099,0.0078,0.0647,0.0174
4734,1.0013,0.0143,-0.0152,-0.0685,0.1105,-0.0131
4744,1.0022,0.0107,-0.0165,0.0689,0.0189,0.0479
4754,1.0010,0.0053,-0.0114,-0.0075,0.0800,0.0479
4764,1.0003,0.0092,-0.0097,0.0078,0.0037,0.0021
4774,1.0017,0.0053,-0.0208,0.0841,0.0037,-0.0284
4784,1.0005,0.0090,-0.0172,0.0078,0.0495,0.0479
4794,0.9993,0.0099,-0.0136,-0.0533,-0.0116,0.0785
4804,1.0040,0.0094,-0.0114,-0.0227,-0.0269,-0.0284
4814,1.0022,0.0087,-0.0131,-0.0380,-0.0421,-0.0284
4824,1.0052,0.0082,-0.0114,0.0383,-0.0116,-0.0131
4834,0.9995,0.0092,-0.0128,0.0231,0.0037,0.0021
4844,1.0076,0.0075,-0.0165,-0.0075,0.0189,-0.0284
4854,0.9998,0.0099,-0.0111,0.0078,0.0037,-0.0131
4864,1.0044,0.0092,-0.0143,0.0536,-0.0269,0.0479
4874,1.0025,0.0080,-0.0131,0.0536,0.0495,-0.0437
4884,1.0032,0.0094,-0.0085,0.0536,0.0189,0.0479
4894,1.0022,0.0134,-0.0039,0.0383,0.0342,-0.0284
4904,1.0005,0.0112,-0.0148,-0.0075,0.0953,-0.0895
4914,1.0025,0.0114,-0.0150,0.0078,0.0189,0.0021
4924,1.0027,0.0053,-0.0160,-0.0227,-0.0269,0.0174
4934,1.0054,0.0073,-0.0162,0.0078,-0.0421,-0.0437
4944,1.0010,0.0077,-0.0162,0.0231,-0.1185,-0.0437
4954,0.9963,0.0102,-0.0150,-0.0533,-0.1643,-0.0284
4964,1.0030,0.0109,-0.0148,-0.0075,0.0189,0.0785
4974,1.0005,0.0104,-0.0119,-0.0227,0.0953,-0.0131
4984,1.0017,0.0138,-0.0162,0.0231,0.0953,0.0327
4994,1.0027,0.0141,-0.0123,0.0689,0.1258,0.0632
5004,1.0044,0.0146,-0.0136,0.0383,-0.0574,-0.0131
5014,1.0049,0.0090,-0.0128,-0.0533,-0.0727,0.0021
5024,1.0025,0.0087,-0.0160,-0.0075,-0.0879,0.0021
5034,1.0020,0.0080,-0.0198,-0.0227,0.0647,0.0021
5044,1.0044,0.0087,-0.0203,-0.0075,0.0189,-0.0131
5054,1.0032,0.0114,-0.0133,-0.0533,-0.0116,0.0632
5064,1.0030,0.0075,-0.0136,0.0231,-0.0421,-0.0589
5074,1.0027,0.0141,-0.0145,0.0689,-0.0727,-0.0284
5084,1.0008,0.0104,-0.0068,0.0536,-0.0879,0.0174
5094,1.0020,0.0082,-0.0182,0.0078,-0.0727,-0.0895
5104,1.0076,0.0085,-0.0107,0.0078,-0.1032,-0.0895
5114,1.0042,0.0094,-0.0177,-0.0838,-0.1795,0.0021
5124,1.0030,0.0173,-0.0143,-0.0838,-0.0879,-0.0742
5134,1.0005,0.0134,-0.0133,-0.0838,0.0342,-0.0131
5144,1.0000,0.0099,-0.0099,-0.0380,0.0800,0.0327
5154,1.0013,0.0112,-0.0109,-0.0380,0.0037,-0.0284
5164,1.0030,0.0114,-0.0160,0.0078,-0.0116,0.0021
5174,1.0037,0.0065,-0.0111,0.0383,-0.0116,-0.0589
5184,1.0032,0.0104,-0.0150,0.0994,-0.0879,-0.0742
5194,0.9995,0.0099,-0.0114,0.0231,-0.0116,-0.0284
5204,1.0025,0.0077,-0.0133,-0.0075,-0.0269,0.0021
5214,0.9983,0.0099,-0.0126,0.0383,0.0800,0.0937
5224,1.0044,0.0116,-0.0177,-0.0075,0.0342,-0.0284
5234,1.0022,0.0136,-0.0126,0.0078,0.1258,-0.0589
5244,1.0040,0.0099,-0.0138,0.0231,0.0037,-0.1047
5254,0.9993,0.0126,-0.0126,0.0231,-0.0269,-0.0895
5264,1.0008,0.0077,-0.0138,-0.0380,-0.0879,-0.0131
5274,1.0020,0.0109,-0.0116,-0.0075,-0.0269,-0.0131
5284,1.0027,0.0136,-0.0123,-0.0075,-0.0116,-0.0437
5294,1.0054,0.0097,-0.0063,-0.0227,0.0647,-0.0284
5304,1.0037,0.0131,-0.0104,-0.0685,0.0647,0.0021
5314,0.9968,0.0109,-0.0143,-0.0075,-0.0574,0.0327
5324,1.0010,0.0104,-0.0145,0.0383,-0.0879,0.1090
5334,0.9995,0.0075,-0.0087,0.0231,-0.0727,-0.0131
5344,1.0027,0.0099,-0.0177,-0.0380,-0.0574,0.0632
5354,1.0015,0.0102,-0.0201,0.0536,-0.0116,0.0021
5364,1.0015,0.0097,-0.0148,-0.0227,-0.0879,-0.0131
5374,1.0015,0.0126,-0.0174,0.0078,-0.0269,0.0479
5384,1.0027,0.0134,-0.0133,-0.0075,0.0647,0.0021
5394,0.9986,0.0102,-0.0152,-0.0075,0.0037,0.0174
5404,1.0000,0.0077,-0.0150,0.0078,-0.1032,0.0327
5414,1.0062,0.0097,-0.0174,0.0078,-0.0269,0.0632
5424,1.0035,0.0090,-0.0172,-0.0533,-0.0574,0.0785
5434,1.0013,0.0124,-0.0056,-0.0380,-0.0116,0.0174
5444,1.0052,0.0068,-0.0172,-0.0685,-0.0269,-0.0589
5454,1.0010,0.0148,-0.0225,-0.0533,0.0495,0.0479
5464,0.9978,0.0124,-0.0111,-0.0227,0.1563,-0.0284
5474,1.0042,0.0102,-0.0131,-0.0075,0.0953,0.0174
5484,1.0020,0.0075,-0.0145,-0.0227,0.0037,-0.0284
5494,1.0027,0.0112,-0.0136,-0.0838,0.0495,-0.0131
5504,1.0017,0.0141,-0.0119,0.0078,0.0342,-0.0895
5514,0.9959,0.0075,-0.0133,-0.0838,-0.0116,0.0021
5524,1.0040,0.0085,-0.0157,-0.0533,-0.0116,0.0021
5534,1.0017,0.0114,-0.0102,-0.0227,0.0189,0.0632
5544,1.0010,0.0073,-0.0090,-0.0380,0.0189,0.0632
5554,1.0037,0.0075,-0.0085,-0.0533,0.0495,0.0632
5564,0.9988,0.0099,-0.0078,-0.0685,0.0037,0.0021
5574,1.0017,0.0075,-0.0085,-0.0380,-0.0574,-0.0742
5584,1.0025,0.0136,-0.0102,-0.0075,-0.0574,0.0021
5594,1.0020,0.0116,-0.0109,-0.0380,-0.0879,0.0021
5604,1.0057,0.0141,-0.0145,0.0078,-0.1337,0.0479
5614,1.0044,0.0134,-0.0167,-0.0075,-0.0269,0.0174
5624,1.0015,0.0138,-0.0172,-0.0380,0.0647,-0.0131
5634,0.9981,0.0090,-0.0123,-0.0838,0.0953,-0.0284
5644,0.9983,0.0097,-0.0073,-0.0533,0.0342,0.0021
5654,0.9995,0.0063,-0.0215,0.0231,0.0037,0.0327
5664,1.0022,0.0099,-0.0169,-0.0533,0.0953,-0.0131
5674,1.0025,0.0104,-0.0189,0.0078,0.0342,-0.0284
5684,1.0017,0.0126,-0.0107,0.0078,-0.0421,-0.0589
5694,1.0020,0.0041,-0.0094,-0.0075,0.0189,0.0021
5704,1.0030,0.0112,-0.0145,0.0994,0.0953,0.0174
5714,0.9988,0.0094,-0.0092,0.0536,0.1258,0.0327
5724,1.0040,0.0099,-0.0143,-0.0227,0.0647,0.0021
5734,1.0015,0.0097,-0.0128,-0.0075,-0.0421,-0.0589
5744,0.9986,0.0075,-0.0094,-0.0227,-0.1032,-0.0589
5754,1.0035,0.0102,-0.0169,-0.0533,0.0037,0.0021
5764,0.9981,0.0102,-0.0114,-0.1144,0.0189,-0.0284
5774,1.0017,0.0104,-0.0116,-0.1144,0.0495,-0.0284
5784,1.0017,0.0102,-0.0160,-0.1144,0.0495,0.0174
5794,0.9995,0.0119,-0.0126,-0.0533,0.0495,0.0021
5804,1.0010,0.0138,-0.0184,-0.0533,-0.0116,-0.0589
5814,1.0022,0.0073,-0.0138,-0.0838,-0.1032,-0.0284
5824,1.0044,0.0124,-0.0148,0.0383,-0.0574,-0.0131
5834,1.0025,0.0065,-0.0092,-0.0075,0.0189,-0.0437
5844,1.0005,0.0055,-0.0174,-0.0075,0.0037,-0.0437
5854,1.0030,0.0134,-0.0160,0.0383,0.0037,-0.0589
5864,0.9981,0.0065,-0.0133,-0.0227,0.0647,0.0021
5874,0.9995,0.0121,-0.0155,0.0078,0.0800,-0.0131
5884,0.9998,0.0090,-0.0061,0.0536,0.0037,-0.0742
5894,1.0047,0.0075,-0.0145,0.0383,-0.1032,-0.0131
5904,1.0003,0.0121,-0.0119,0.0231,-0.0116,0.1090
5914,1.0032,0.0097,-0.0198,0.0078,-0.0421,0.1090
5924,1.0020,0.0085,-0.0157,0.0231,0.0647,0.0479
5934,1.0037,0.0063,-0.0128,-0.0533,0.0800,0.0785
5944,1.0015,0.0068,-0.0150,-0.0227,0.0647,0.0479
5954,1.0020,0.0107,-0.0078,0.0231,-0.0116,-0.0742
5964,0.9976,0.0107,-0.0138,-0.0075,0.0037,-0.0437
5974,1.0049,0.0080,-0.0145,0.0078,0.0037,-0.0589
5984,1.0042,0.0104,-0.0162,0.0078,-0.0421,-0.0437
5994,1.0052,0.0107,-0.0116,-0.0075,-0.0727,0.0327
6004,1.0032,0.0107,-0.0075,0.0383,0.0495,0.0937
6014,1.0067,0.0136,-0.0078,0.0078,0.0189,0.0937
6024,1.0005,0.0107,-0.0145,0.0536,0.0495,-0.0437
6034,1.0035,0.0080,-0.0133,0.0231,0.0647,0.0021
6044,0.9976,0.0104,-0.0041,0.0078,0.0037,0.0021
6054,1.0059,0.0058,-0.0169,-0.0533,-0.1032,-0.0742
6064,0.9963,0.0090,-0.0116,-0.0533,-0.0269,0.0021
6074,0.9990,0.0094,-0.0157,-0.0227,0.0189,0.0785
6084,1.0017,0.0126,-0.0136,0.0231,-0.0116,0.0327
6094,1.0035,0.0138,-0.0150,0.0231,0.0800,0.0174
6104,1.0027,0.0114,-0.0177,0.0689,0.0495,0.0785
6114,1.0032,0.0065,-0.0201,0.1147,-0.0574,0.0632
6124,0.9986,0.0109,-0.0133,0.0536,0.0037,0.0327
6134,1.0032,0.0114,-0.0133,0.0383,-0.0116,0.0327
6144,0.9988,0.0090,-0.0143,-0.0227,-0.0116,-0.0589
6154,1.0022,0.0124,-0.0094,0.0383,-0.0421,-0.0131
6164,1.0027,0.0114,-0.0131,0.0536,0.0189,0.0174
6174,0.9993,0.0121,-0.0121,0.0231,-0.0116,0.0021
6184,1.0008,0.0092,-0.0174,-0.0075,-0.0269,-0.1047
6194,0.9976,0.0094,-0.0167,-0.0533,-0.0116,-0.0131
6204,1.0032,0.0126,-0.0148,-0.0075,0.0037,0.0479
6214,1.0040,0.0097,-0.0138,-0.0533,0.0953,-0.0437
6224,1.0027,0.0126,-0.0162,0.0383,0.0800,0.0479
6234,0.9995,0.0114,-0.0111,0.0231,0.0647,-0.0284
6244,0.9995,0.0080,-0.0148,-0.0075,-0.0421,0.0021
6254,0.9998,0.0097,-0.0126,0.0536,-0.0269,-0.0437
6264,1.0030,0.0097,-0.0148,-0.0533,0.0189,-0.0437
6274,1.0020,0.0099,-0.0162,-0.0075,-0.0269,0.0327
6284,1.0047,0.0124,-0.0092,0.0689,-0.0116,0.0632
6294,1.0027,0.0107,-0.0160,0.0994,0.0953,0.0327
6304,1.0020,0.0107,-0.0114,0.0078,0.1869,0.0479
6314,1.0040,0.0160,-0.0087,0.0689,0.0647,0.0327
6324,1.0052,0.0082,-0.0123,-0.0227,-0.0269,-0.0284
6334,0.9956,0.0121,-0.0148,0.0231,-0.1032,-0.0589
6344,1.0005,0.0119,-0.0152,-0.0380,-0.1032,0.0174
6354,1.0062,0.0134,-0.0107,-0.0685,-0.0574,0.0021
6364,1.0062,0.0097,-0.0160,-0.0075,-0.0574,0.1090
6374,0.9993,0.0087,-0.0131,0.0383,-0.1185,0.1548
6384,1.0042,0.0097,-0.0186,0.0078,-0.1337,0.0479
6394,1.0040,0.0109,-0.0104,-0.0075,-0.0421,0.0479
6404,0.9990,0.0114,-0.0075,0.0536,-0.0421,-0.0284
6414,1.0022,0.0087,-0.0123,-0.0075,0.0647,0.0021
6424,1.0027,0.0114,-0.0155,-0.0227,0.1105,-0.0284
6434,0.9973,0.0082,-0.0121,-0.1602,0.0495,0.0327
6444,1.0005,0.0141,-0.0186,-0.0380,0.0342,0.0174
6454,0.9963,0.0114,-0.0136,0.0231,0.0037,-0.0131
6464,1.0057,0.0102,-0.0152,0.0383,0.0495,-0.0742
6474,1.0062,0.0099,-0.0078,0.0994,-0.0116,0.0174
6484,1.0037,0.0109,-0.0152,0.0231,0.0189,0.0021
6494,1.0047,0.0087,-0.0128,0.0078,0.0647,0.0327
6504,1.0040,0.0048,-0.0123,-0.0227,0.0800,-0.0284
6514,1.0027,0.0094,-0.0128,-0.0227,0.0647,0.0174
6524,1.0005,0.0126,-0.0143,-0.0227,0.0342,0.0327
6534,1.0000,0.0138,-0.0109,-0.0685,0.1105,0.0785
6544,1.0022,0.0143,-0.0189,0.0383,0.0800,0.0174
6554,1.0013,0.0087,-0.0131,-0.0075,-0.0421,0.0174
6564,0.9978,0.0097,-0.0160,0.0078,-0.0116,-0.0131
6574,1.0037,0.0082,-0.0119,-0.0380,-0.0269,0.0327
6584,1.0013,0.0124,-0.0094,0.0078,-0.1032,0.0937
6594,0.9988,0.0085,-0.0123,-0.0533,-0.0574,-0.0131
6604,1.0037,0.0134,-0.0104,-0.0838,-0.0574,0.0632
6614,1.0037,0.0080,-0.0169,-0.0227,0.0037,0.0327
6624,1.0049,0.0129,-0.0116,-0.0075,0.0800,0.0174
6634,1.0000,0.0114,-0.0145,0.0536,0.1411,-0.0589
6644,1.0003,0.0114,-0.0136,0.0383,0.0800,0.0327
6654,1.0025,0.0099,-0.0082,0.0994,0.0189,-0.0131
6664,1.0005,0.0043,-0.0148,0.0689,-0.0727,-0.0589
6674,1.0025,0.0097,-0.0111,-0.0227,-0.0574,-0.0284
6684,1.0010,0.0094,-0.0167,-0.0227,-0.1185,0.0327
6694,1.0022,0.0119,-0.0140,-0.0685,-0.1032,0.1090
6704,1.0049,0.0124,-0.0174,0.0231,-0.0574,0.1395
6714,1.0071,0.0112,-0.0126,0.0231,0.0647,0.0632
6724,1.0022,0.0124,-0.0136,-0.0075,0.0189,0.0632
6734,1.0015,0.0116,-0.0102,0.0383,0.1258,-0.0284
6744,0.9990,0.0107,-0.0182,0.0231,0.0342,-0.0284
6754,1.0008,0.0087,-0.0126,-0.0380,-0.0269,0.0021
6764,1.0027,0.0107,-0.0131,-0.1144,-0.0574,0.0327
6774,1.0035,0.0107,-0.0087,-0.1602,0.0037,-0.0742
6784,1.0062,0.0151,-0.0119,-0.0991,0.0037,-0.0131
6794,1.0005,0.0124,-0.0177,0.0078,0.0647,-0.0284
6804,1.0027,0.0063,-0.0179,0.0536,-0.0116,-0.1200
6814,0.9983,0.0097,-0.0152,0.0536,-0.0574,-0.0895
6824,0.9990,0.0080,-0.0114,0.0383,-0.0574,-0.1811
6834,1.0015,0.0092,-0.0107,0.0383,0.0495,-0.1200
6844,0.9990,0.0077,-0.0143,-0.0075,0.0037,-0.0437
6854,1.0052,0.0153,-0.0051,0.0078,-0.0879,0.0174
6864,1.0008,0.0146,-0.0177,0.0078,-0.0574,0.0327
6874,1.0054,0.0195,-0.0099,-0.0075,-0.0116,0.0937
6884,0.9998,0.0114,-0.0184,0.0078,-0.1795,0.0785
6894,1.0027,0.0114,-0.0172,-0.0227,-0.0879,0.0785
6904,1.0032,0.0107,-0.0131,0.0231,0.0342,0.1090
6914,1.0035,0.0055,-0.0143,0.0383,-0.0116,0.1090
6924,1.0003,0.0048,-0.0148,-0.0227,-0.0269,0.0632
6934,1.0013,0.0063,-0.0128,-0.0838,-0.1032,0.0327
6944,1.0000,0.0058,-0.0152,-0.0838,-0.1032,0.0021
6954,0.9983,0.0065,-0.0104,-0.0075,-0.0879,0.0479
6964,1.0037,0.0094,-0.0143,-0.0075,-0.0574,0.0021
6974,1.0040,0.0073,-0.0119,0.0231,-0.0116,-0.1200
6984,1.0008,0.0092,-0.0070,-0.0227,0.0495,-0.1047
6994,0.9998,0.0126,-0.0111,0.0231,0.0189,-0.1963
7004,1.0025,0.0053,-0.0087,0.0231,-0.0269,-0.1963
7014,1.0040,0.0134,-0.0092,-0.0227,0.0647,-0.1963
7024,1.0025,0.0129,-0.0123,-0.0227,-0.0727,-0.1353
7034,1.0000,0.0165,-0.0121,0.0078,-0.2101,-0.0437
7044,1.0017,0.0141,-0.0075,-0.0227,-0.1032,-0.0742
7054,1.0035,0.0151,-0.0102,-0.0075,-0.1032,-0.0131
7064,1.0035,0.0136,-0.0186,0.0078,-0.1032,0.0937
7074,1.0005,0.0124,-0.0128,-0.0380,-0.0879,0.0785
7084,1.0049,0.0097,-0.0150,-0.0685,-0.0574,0.1090
7094,0.9978,0.0082,-0.0092,-0.1144,-0.0269,0.0937
7104,1.0005,0.0073,-0.0184,-0.0380,0.0495,0.0785
7114,1.0017,0.0058,-0.0126,-0.0380,0.0800,-0.0131
7124,1.0025,0.0080,-0.0167,0.0078,0.0189,0.0632
7134,0.9998,0.0085,-0.0119,0.0383,0.0189,0.0327
7144,0.9998,0.0153,-0.0148,0.0231,-0.0116,0.1090
7154,1.0020,0.0090,-0.0167,0.0994,0.0495,0.1243
7164,1.0013,0.0109,-0.0090,0.1147,0.0189,0.0937
7174,1.0017,0.0097,-0.0136,0.0689,0.0037,0.0479
7184,1.0008,0.0104,-0.0087,0.0689,0.0953,0.0327
7194,1.0010,0.0104,-0.0104,-0.0075,0.0342,0.1395
7204,1.0047,0.0126,-0.0140,-0.0227,-0.0269,0.1395
7214,1.0005,0.0099,-0.0157,0.0078,0.0342,0.1090
7224,1.0013,0.0134,-0.0138,0.0231,0.0189,0.0937
7234,0.9978,0.0114,-0.0169,0.0383,0.0953,0.0479
7244,1.0020,0.0109,-0.0230,0.0383,0.0953,-0.0131
7254,1.0030,0.0043,-0.0167,-0.0075,0.0495,-0.0131
7264,1.0027,0.0033,-0.0184,0.0536,-0.0116,0.0174
7274,0.9990,0.0077,-0.0133,0.0078,-0.0116,0.0021
7284,1.0017,0.0104,-0.0075,-0.0380,-0.0269,0.0937
7294,1.0025,0.0109,-0.0126,-0.0685,-0.0116,0.0327
7304,1.0047,0.0102,-0.0196,0.0078,0.0800,-0.0589
7314,1.0020,0.0119,-0.0140,0.0231,0.0495,0.0021
7324,1.0037,0.0121,-0.0114,0.0841,0.1258,-0.1200
7334,1.0035,0.0102,-0.0114,0.0536,0.1258,0.0021
7344,1.0003,0.0146,-0.0068,0.0078,0.1716,-0.0284
7354,1.0042,0.0104,-0.0056,0.0231,0.1258,0.0021
7364,1.0047,0.0134,-0.0133,-0.0075,0.0037,0.0327
7374,1.0013,0.0112,-0.0090,-0.0227,0.0037,0.0479
7384,1.0062,0.0136,-0.0070,-0.0838,0.1258,-0.0284
7394,1.0005,0.0146,-0.0075,-0.0380,0.0647,0.0632
7404,1.0000,0.0126,-0.0119,0.0689,0.0953,0.0937
7414,1.0017,0.0104,-0.0186,0.0078,0.0189,0.0632
7424,1.0003,0.0075,-0.0157,-0.0533,-0.0574,0.0632
7434,0.9966,0.0134,-0.0136,0.1147,-0.0574,0.0632
7444,1.0003,0.0092,-0.0140,0.0536,-0.1948,0.1548
7454,1.0027,0.0090,-0.0155,0.0841,-0.1490,0.1395
7464,1.0035,0.0160,-0.0162,0.0536,-0.1490,0.1701
7474,1.0049,0.0077,-0.0150,0.0536,-0.0574,0.0632
7484,1.0003,0.0153,-0.0208,-0.0685,0.0342,0.0021
7494,1.0042,0.0080,-0.0111,-0.0533,0.0495,0.0174
7504,0.9971,0.0102,-0.0169,0.0536,0.0342,0.0479
7514,1.0005,0.0077,-0.0157,0.0383,0.1411,-0.0131
7524,0.9998,0.0097,-0.0157,0.0078,0.1411,-0.0895
7534,0.9988,0.0109,-0.0085,-0.0227,0.0647,-0.0895
7544,1.0027,0.0070,-0.0121,0.0078,-0.0574,-0.0895
7554,1.0017,0.0104,-0.0140,-0.0685,-0.1643,-0.1505
7564,1.0027,0.0116,-0.0114,-0.0380,-0.1490,-0.0437
7574,1.0030,0.0070,-0.0094,-0.0075,-0.2253,-0.0895
7584,1.0010,0.0143,-0.0111,0.1147,-0.1490,0.0327
7594,1.0027,0.0087,-0.0165,0.0078,-0.0879,-0.0131
7604,1.0037,0.0090,-0.0162,0.1757,-0.0269,-0.0284
7614,1.0015,0.0126,-0.0114,0.0383,0.0800,-0.0284
7624,0.9983,0.0077,-0.0097,0.0231,0.0800,-0.0895
7634,1.0042,0.0085,-0.0165,-0.0075,-0.0269,-0.0895
7644,0.9961,0.0104,-0.0111,-0.0227,-0.0727,-0.0131
7654,1.0027,0.0114,-0.0186,0.0231,-0.1032,-0.0742
7664,1.0003,0.0097,-0.0145,-0.0991,-0.1185,0.0327
7674,1.0008,0.0119,-0.0136,-0.0533,-0.0879,0.0021
7684,1.0037,0.0090,-0.0065,0.0231,-0.0269,-0.0284
7694,1.0008,0.0092,-0.0128,0.0689,-0.0879,-0.0437
7704,1.0005,0.0090,-0.0131,-0.0075,-0.0879,0.0021
7714,1.0027,0.0082,-0.0136,0.0078,-0.1032,-0.0742
7724,1.0020,0.0107,-0.0131,0.0231,-0.1185,-0.0437
7734,1.0005,0.0134,-0.0165,-0.0380,0.0037,-0.0131
7744,1.0025,0.0109,-0.0189,0.0231,0.0495,0.0021
7754,1.0000,0.0087,-0.0075,0.0078,0.0342,-0.0284
7764,1.0030,0.0124,-0.0090,0.0383,-0.0269,0.0174
7774,1.0015,0.0121,-0.0126,-0.0685,-0.0421,0.0327
7784,1.0015,0.0053,-0.0078,-0.0533,-0.1337,-0.0742
7794,0.9995,0.0107,-0.0121,-0.0380,-0.0727,-0.0437
7804,0.9993,0.0155,-0.0126,-0.0380,-0.0727,0.0174
7814,1.0025,0.0121,-0.0198,-0.0533,-0.0116,-0.0284
7824,1.0008,0.0114,-0.0165,-0.0838,0.0037,-0.0284
7834,1.0000,0.0085,-0.0073,-0.0227,-0.0269,-0.0284
7844,1.0025,0.0114,-0.0148,0.0078,0.0495,-0.0589
7854,0.9990,0.0102,-0.0107,-0.0075,0.0342,-0.0589
7864,1.0005,0.0109,-0.0090,0.0383,0.0037,0.0174
7874,1.0020,0.0107,-0.0143,0.0994,-0.0269,0.0174
7884,1.0032,0.0094,-0.0133,0.0536,-0.0269,-0.0131
7894,1.0064,0.0092,-0.0191,0.0383,0.0495,-0.0131
7904,1.0027,0.0124,-0.0087,0.0078,-0.0269,-0.0742
7914,0.9990,0.0109,-0.0116,-0.0075,0.0495,-0.0437
7924,1.0017,0.0080,-0.0114,-0.0685,0.0647,-0.0437
7934,1.0013,0.0114,-0.0143,-0.0685,0.0189,0.0327
7944,1.0013,0.0102,-0.0116,-0.0380,-0.0269,-0.0284
7954,1.0025,0.0112,-0.0140,-0.0227,0.0189,0.0021
7964,1.0064,0.0097,-0.0208,0.0689,0.0647,-0.0437
7974,0.9995,0.0104,-0.0167,-0.0227,-0.0116,0.0021
7984,0.9995,0.0092,-0.0136,0.0536,-0.0727,0.0174
7994,1.0027,0.0087,-0.0094,-0.0075,-0.0727,0.0327
8004,0.9986,0.0109,-0.0148,-0.0075,0.0037,0.0174
8014,1.0032,0.0102,-0.0128,0.0231,0.0647,-0.0131
8024,0.9998,0.0077,-0.0150,-0.0380,0.0037,-0.0895
8034,1.0008,0.0102,-0.0065,-0.0380,-0.0727,-0.0895
8044,1.0020,0.0112,-0.0097,-0.0685,-0.0727,0.0785
8054,1.0027,0.0141,-0.0102,0.0383,0.0495,0.0479
8064,1.0035,0.0114,-0.0082,0.0383,0.1563,-0.0131
8074,1.0027,0.0119,-0.0111,0.0383,0.0495,0.0632
8084,1.0035,0.0146,-0.0155,0.0383,0.0647,0.1090
8094,1.0020,0.0129,-0.0111,0.0689,-0.0116,0.0479
8104,1.0017,0.0112,-0.0094,0.0689,-0.1032,0.0021
8114,1.0005,0.0097,-0.0123,-0.0227,-0.1032,0.0174
8124,1.0035,0.0134,-0.0121,-0.0685,-0.0879,0.0327
8134,0.9995,0.0124,-0.0080,-0.0075,-0.0727,-0.0589
8144,1.0013,0.0099,-0.0131,0.0231,-0.0574,-0.0131
8154,1.0008,0.0073,-0.0157,-0.0227,-0.0116,-0.0131
8164,0.9998,0.0107,-0.0041,0.0231,0.0953,-0.0284
8174,0.9990,0.0097,-0.0131,-0.0075,0.0647,0.0174
8184,1.0040,0.0094,-0.0201,-0.0075,0.0800,-0.0131
8194,0.9993,0.0109,-0.0128,0.0078,-0.0269,-0.0131
8204,1.0025,0.0114,-0.0104,-0.0685,0.0342,-0.0131
8214,1.0047,0.0080,-0.0138,-0.0380,0.0189,0.0479
8224,1.0025,0.0124,-0.0123,0.0078,0.0495,-0.0131
8234,1.0052,0.0141,-0.0065,0.0231,0.0189,0.0327
8244,1.0003,0.0102,-0.0160,0.1452,-0.0421,-0.0131
8254,1.0010,0.0053,-0.0165,0.0841,0.0342,-0.0284
8264,1.0027,0.0077,-0.0157,0.0383,0.0495,0.0632
8274,1.0022,0.0138,-0.0097,0.0689,-0.0727,0.0479
8284,1.0030,0.0153,-0.0155,-0.0227,0.0037,0.1090
8294,1.0013,0.0143,-0.0099,-0.0380,0.1411,0.0632
8304,0.9990,0.0124,-0.0092,0.0078,0.0953,0.1243
8314,1.0022,0.0114,-0.0087,0.0689,0.1411,0.0479
8324,1.0005,0.0136,-0.0143,0.0841,0.1105,0.0174
8334,1.0013,0.0090,-0.0123,-0.0533,0.0342,-0.0437
8344,1.0013,0.0077,-0.0143,0.0231,0.0189,-0.0131
8354,0.9998,0.0102,-0.0123,-0.0380,0.0342,0.0327
8364,1.0017,0.0073,-0.0116,-0.0685,0.0800,0.0479
8374,1.0030,0.0097,-0.0092,-0.0227,0.0495,0.0174
8384,0.9993,0.0087,-0.0121,0.0078,0.0647,0.0479
8394,1.0013,0.0121,-0.0148,-0.0075,0.1411,0.0632
8404,0.9993,0.0126,-0.0165,0.0078,0.1716,-0.0895
8414,1.0062,0.0087,-0.0133,0.0689,0.1716,-0.1353
8424,0.9988,0.0109,-0.0145,0.0841,0.0800,-0.0895
8434,1.0015,0.0104,-0.0116,-0.0227,0.0495,0.0021
8444,1.0032,0.0094,-0.0145,-0.0380,0.0037,0.0021
8454,1.0032,0.0112,-0.0128,-0.0685,0.0189,0.0174
8464,0.9986,0.0136,-0.0191,-0.0533,0.0037,0.0479
8474,1.0003,0.0136,-0.0099,-0.0075,0.0189,0.0479
8484,1.0017,0.0087,-0.0123,-0.0533,0.0189,0.0785
8494,1.0003,0.0090,-0.0148,0.0689,-0.0116,0.0021
8504,1.0010,0.0087,-0.0136,0.0231,0.0189,0.0021
8514,1.0032,0.0109,-0.0155,-0.0075,0.0189,0.0785
8524,0.9973,0.0124,-0.0131,0.0078,0.1411,0.0785
8534,1.0000,0.0092,-0.0121,0.0231,0.0495,0.0479
8544,0.9995,0.0092,-0.0087,-0.0533,0.0342,0.0632
8554,1.0015,0.0065,-0.0128,0.0078,-0.0116,-0.0131
8564,1.0015,0.0114,-0.0145,0.0994,0.0037,-0.1200
8574,1.0027,0.0080,-0.0140,0.0536,-0.0879,-0.0742
8584,1.0032,0.0134,-0.0148,0.0383,-0.0269,-0.0589
8594,1.0044,0.0068,-0.0179,0.0536,0.0495,-0.0131
8604,1.0022,0.0094,-0.0136,0.0078,0.0495,-0.0895
8614,1.0042,0.0087,-0.0133,0.0078,0.0342,0.0785
8624,1.0008,0.0092,-0.0107,-0.0227,0.0189,0.0174
8634,0.9986,0.0124,-0.0160,0.0078,0.0037,-0.0437
8644,1.0047,0.0109,-0.0107,0.0383,0.0189,-0.0589
8654,0.9971,0.0097,-0.0111,0.0383,0.0189,0.0937
8664,1.0042,0.0131,-0.0227,0.0536,0.0647,0.1243
8674,1.0022,0.0131,-0.0155,0.0536,0.0953,0.0479
8684,1.0003,0.0094,-0.0194,0.0841,0.0647,0.0327
8694,1.0054,0.0075,-0.0070,-0.0685,0.0495,0.0174
8704,0.9981,0.0080,-0.0160,-0.0075,0.1105,0.1090
8714,1.0052,0.0090,-0.0109,0.0078,0.1105,0.0937
8724,1.0022,0.0080,-0.0107,-0.0838,0.1258,0.0479
8734,0.9954,0.0116,-0.0123,-0.0380,-0.0421,0.1243
8744,1.0008,0.0138,-0.0150,-0.0380,-0.0116,0.0632
8754,1.0044,0.0121,-0.0145,0.0231,0.0037,0.0021
8764,1.0015,0.0090,-0.0092,0.1147,0.0495,0.0174
8774,1.0013,0.0063,-0.0167,0.0536,0.1105,0.0479
8784,0.9993,0.0109,-0.0058,-0.0075,0.1563,0.1243
8794,0.9993,0.0129,-0.0162,0.0078,0.1411,-0.0284
8804,0.9993,0.0104,-0.0131,-0.0075,0.0953,-0.1047
8814,1.0037,0.0099,-0.0133,0.0536,-0.0269,-0.0589
8824,1.0049,0.0104,-0.0136,-0.0685,-0.0727,-0.0131
8834,1.0005,0.0104,-0.0109,-0.0685,0.1258,-0.1353
8844,0.9968,0.0102,-0.0128,0.0231,0.0953,-0.0589
8854,1.0010,0.0094,-0.0102,0.0231,-0.0116,-0.0589
8864,1.0017,0.0094,-0.0140,0.0689,-0.0421,-0.0131
8874,0.9978,0.0129,-0.0150,-0.0227,-0.0727,0.0479
8884,1.0059,0.0141,-0.0119,0.0383,-0.0269,0.0327
8894,1.0049,0.0126,-0.0138,0.0231,-0.0116,0.0479
8904,1.0044,0.0114,-0.0116,-0.0075,-0.0727,-0.0131
8914,1.0020,0.0075,-0.0114,-0.0227,-0.1490,0.0021
8924,1.0015,0.0099,-0.0172,0.0231,-0.0269,-0.0284
8934,1.0025,0.0068,-0.0099,0.0078,0.0189,-0.0437
8944,1.0010,0.0087,-0.0148,0.0078,0.0800,0.0021
8954,1.0003,0.0087,-0.0114,0.0536,0.0037,-0.1047
8964,1.0000,0.0065,-0.0165,0.0078,-0.0727,-0.0895
8974,1.0008,0.0068,-0.0097,-0.0227,-0.0879,-0.1047
8984,0.9990,0.0109,-0.0102,-0.0838,-0.1795,-0.0131
8994,1.0071,0.0129,-0.0116,-0.0227,-0.1643,-0.0742
9004,0.9998,0.0090,-0.0094,-0.0380,-0.0421,-0.0284
9014,1.0035,0.0146,-0.0128,0.0383,0.0342,0.0021
9024,1.0049,0.0148,-0.0138,0.0841,0.0647,-0.0589
9034,1.0052,0.0112,-0.0172,0.1299,0.0037,-0.0895
9044,0.9988,0.0060,-0.0160,0.0536,0.0037,-0.0742
9054,0.9959,0.0070,-0.0131,0.0383,-0.0574,-0.1353
9064,1.0020,0.0116,-0.0133,0.0689,-0.0727,-0.0742
9074,0.9983,0.0077,-0.0131,-0.0380,0.0189,0.0174
9084,1.0015,0.0097,-0.0107,0.0231,-0.0116,0.0479
9094,1.0047,0.0102,-0.0131,-0.0685,0.0495,0.0785
9104,1.0022,0.0104,-0.0162,0.0536,0.0800,0.0327
9114,1.0027,0.0107,-0.0080,0.0383,0.0189,-0.0589
9124,1.0008,0.0121,-0.0114,0.0231,-0.0421,-0.0589
9134,1.0015,0.0112,-0.0114,0.0231,-0.0116,-0.1353
9144,1.0042,0.0109,-0.0186,0.0078,0.0342,-0.0895
9154,1.0005,0.0099,-0.0150,0.0689,0.0953,-0.0131
9164,0.9995,0.0129,-0.0203,-0.0533,0.0495,-0.0437
9174,1.0042,0.0116,-0.0140,-0.1144,-0.0269,-0.0589
9184,1.0013,0.0131,-0.0116,-0.0991,-0.0421,-0.0284
9194,0.9998,0.0099,-0.0136,0.0841,0.0037,0.0479
9204,1.0010,0.0063,-0.0198,0.0841,0.1105,-0.0131
9214,1.0000,0.0085,-0.0167,0.0689,0.0495,-0.0131
9224,1.0008,0.0119,-0.0128,0.0078,0.0800,0.0021
9234,1.0040,0.0102,-0.0082,-0.0685,0.1716,0.0327
9244,1.0022,0.0131,-0.0099,-0.0227,0.1105,0.0021
9254,1.0042,0.0119,-0.0167,0.0231,0.0037,0.0327
9264,1.0081,0.0099,-0.0140,0.0383,-0.0421,-0.0742
9274,0.9995,0.0092,-0.0131,0.0231,0.0495,-0.0589
9284,1.0008,0.0070,-0.0107,0.0536,-0.0116,-0.0284
9294,1.0020,0.0102,-0.0140,0.0078,0.0189,-0.0589
9304,1.0010,0.0060,-0.0123,0.0536,0.0495,-0.0284
9314,1.0013,0.0082,-0.0152,0.0078,0.0800,-0.0131
9324,1.0049,0.0109,-0.0128,-0.0227,0.0647,0.0021
9334,1.0057,0.0099,-0.0150,-0.0685,0.0342,-0.0131
9344,1.0025,0.0112,-0.0152,-0.0685,0.0037,-0.0284
9354,1.0035,0.0124,-0.0114,-0.0838,-0.0269,-0.0437
9364,1.0020,0.0114,-0.0126,-0.0380,-0.0421,-0.0589
9374,1.0013,0.0114,-0.0143,-0.0075,-0.0727,0.0327
9384,1.0000,0.0114,-0.0225,-0.0075,-0.0116,0.0327
9394,0.9956,0.0092,-0.0196,0.0231,-0.0421,0.0174
9404,0.9988,0.0136,-0.0150,0.0383,-0.0574,0.0632
9414,1.0025,0.0102,-0.0114,-0.0075,-0.0879,0.0174
9424,1.0030,0.0114,-0.0138,0.0078,0.0342,0.0327
9434,1.0042,0.0104,-0.0155,0.0536,0.0953,0.0479
9444,1.0020,0.0129,-0.0111,0.0383,0.0495,-0.0131
9454,1.0030,0.0053,-0.0109,0.1910,0.0647,-0.0589
9464,1.0017,0.0102,-0.0131,0.0994,0.0495,-0.1047
9474,1.0032,0.0068,-0.0121,0.0536,0.0953,-0.1200
9484,1.0030,0.0077,-0.0085,-0.0227,0.0189,-0.0437
9494,1.0025,0.0097,-0.0150,0.0231,0.0037,-0.0131
9504,1.0022,0.0082,-0.0102,-0.0838,0.0189,0.0479
9514,1.0030,0.0124,-0.0090,-0.0075,0.0037,0.0174
9524,1.0010,0.0087,-0.0148,0.0689,0.0037,0.0174
9534,1.0027,0.0114,-0.0138,0.0078,0.0647,-0.0131
9544,1.0067,0.0134,-0.0126,0.0689,0.0037,-0.0131
9554,0.9990,0.0116,-0.0104,0.0383,-0.0269,-0.0131
9564,1.0008,0.0094,-0.0116,0.0078,-0.0727,-0.0131
9574,0.9978,0.0114,-0.0145,-0.0380,-0.0574,-0.0131
9584,0.9995,0.0134,-0.0169,-0.1296,-0.0421,0.0021
9594,1.0010,0.0116,-0.0136,-0.0533,-0.0269,0.0021
9604,1.0015,0.0134,-0.0145,-0.0227,0.0037,-0.0284
9614,1.0000,0.0129,-0.0128,0.0994,0.0495,-0.0284
9624,1.0020,0.0109,-0.0094,0.0841,0.0495,-0.0131
9634,1.0037,0.0116,-0.0191,0.1452,0.0342,0.0021
9644,1.0037,0.0090,-0.0138,0.1605,0.0800,-0.0131
9654,1.0035,0.0031,-0.0138,0.0689,0.1105,0.0632
9664,1.0047,0.0090,-0.0157,-0.0380,0.0189,0.1090
9674,1.0015,0.0097,-0.0116,-0.0380,-0.0269,0.0785
9684,1.0022,0.0112,-0.0123,0.0078,-0.0116,0.0021
9694,1.0025,0.0094,-0.0145,0.0078,-0.0269,0.0174
9704,0.9990,0.0085,-0.0082,0.0383,-0.0574,0.0021
9714,1.0015,0.0065,-0.0140,0.0078,-0.0421,-0.0131
9724,1.0003,0.0085,-0.0145,0.0078,-0.0269,0.0937
9734,1.0027,0.0134,-0.0194,0.0383,0.0342,0.0479
9744,1.0052,0.0116,-0.0186,-0.0227,0.0189,-0.0589
9754,1.0025,0.0102,-0.0148,-0.0533,0.0037,0.0174
9764,1.0017,0.0082,-0.0191,0.0383,-0.0116,-0.0131
9774,0.9956,0.0109,-0.0145,0.0383,-0.0269,-0.0589
9784,0.9956,0.0087,-0.0131,-0.0685,-0.1185,-0.0589
9794,1.0022,0.0090,-0.0128,-0.0533,-0.1032,-0.0589
9804,1.0022,0.0107,-0.0109,-0.0380,-0.1032,-0.0437
9814,1.0042,0.0116,-0.0152,0.0231,-0.0116,0.0479
9824,0.9995,0.0116,-0.0104,0.0536,0.1411,0.0785
9834,0.9971,0.0109,-0.0097,-0.0227,0.0342,0.0479
9844,1.0071,0.0080,-0.0107,0.0383,0.0342,-0.0437
9854,1.0017,0.0104,-0.0131,0.0078,0.0342,-0.0589
9864,1.0015,0.0090,-0.0131,0.0383,0.0800,-0.1047
9874,1.0017,0.0092,-0.0138,0.0078,0.0342,-0.0437
9884,1.0062,0.0131,-0.0143,-0.0380,-0.0879,0.0327
9894,1.0022,0.0099,-0.0160,-0.0380,-0.0574,-0.0284
9904,0.9963,0.0114,-0.0167,-0.0075,0.0342,-0.0131
9914,0.9966,0.0102,-0.0092,0.0994,0.0189,0.0632
9924,1.0017,0.0097,-0.0121,0.0994,0.0647,0.0479
9934,1.0037,0.0082,-0.0182,0.0231,0.0495,0.0632
9944,0.9993,0.0119,-0.0128,0.0536,0.0037,-0.0284
9954,1.0020,0.0075,-0.0186,0.0231,-0.1032,0.0021
9964,0.9986,0.0080,-0.0148,0.0231,0.0037,0.0632
9974,1.0047,0.0109,-0.0148,-0.0075,-0.0269,0.1243
9984,1.0017,0.0138,-0.0136,0.0689,0.1258,0.0174
9994,1.0030,0.0099,-0.0090,-0.0075,0.0647,0.1395
10004,1.0071,0.0060,-0.0109,0.0231,0.0495,0.0479
10014,0.9995,0.0060,-0.0104,0.0841,0.0953,0.0632
10024,0.9990,0.0029,-0.0075,0.0536,0.0495,0.0174
10034,1.0005,0.0073,-0.0140,-0.0227,0.0037,0.0174
10044,1.0000,0.0102,-0.0206,-0.1296,-0.0879,0.0479
10054,1.0020,0.0051,-0.0157,-0.0991,-0.0574,-0.0589
10064,0.9998,0.0124,-0.0092,-0.0685,-0.0269,-0.0437
10074,1.0003,0.0143,-0.0155,0.0231,0.0189,0.0021
10084,1.0020,0.0126,-0.0116,-0.0075,0.0037,0.0174
10094,1.0005,0.0080,-0.0094,0.0536,0.0189,-0.0131
10104,0.9966,0.0058,-0.0131,0.0841,0.0189,-0.0589
10114,1.0008,0.0112,-0.0152,-0.0380,0.0037,0.0327
10124,0.9998,0.0080,-0.0160,-0.0075,-0.0269,0.0327
10134,1.0000,0.0092,-0.0131,-0.0685,0.0495,0.0632
10144,1.0074,0.0058,-0.0126,-0.0685,-0.0421,-0.0284
10154,1.0027,0.0099,-0.0107,-0.0075,0.0342,-0.0131
10164,0.9998,0.0097,-0.0131,-0.0838,0.0342,0.0021
10174,1.0035,0.0114,-0.0182,0.0078,-0.0421,0.0174
10184,0.9988,0.0112,-0.0097,0.0078,-0.0116,-0.0742
10194,1.0008,0.0112,-0.0099,0.0994,0.0189,0.0174
10204,1.0015,0.0073,-0.0128,0.0841,-0.0574,-0.0589
10214,1.0013,0.0070,-0.0182,-0.0380,0.0037,-0.0284
10224,1.0040,0.0121,-0.0128,-0.0685,0.0495,0.0785
10234,1.0047,0.0131,-0.0223,-0.0533,0.0037,0.0632
10244,1.0005,0.0134,-0.0128,0.0383,0.0037,0.0632
10254,1.0040,0.0109,-0.0123,0.0536,0.0037,0.0632
10264,0.9968,0.0090,-0.0075,0.0841,-0.0116,0.0479
10274,1.0025,0.0075,-0.0114,0.0383,-0.0574,0.0327
10284,1.0022,0.0107,-0.0177,-0.0380,-0.0574,0.0479
10294,1.0027,0.0063,-0.0145,0.0231,-0.0116,0.1090
10304,1.0076,0.0097,-0.0116,-0.0227,-0.0116,0.1395
10314,1.0022,0.0102,-0.0169,0.0689,0.0037,0.0785
10324,0.9998,0.0090,-0.0155,0.0536,-0.0879,0.0021
10334,1.0003,0.0073,-0.0111,-0.0227,-0.0727,0.0021
10344,1.0049,0.0121,-0.0090,-0.0227,-0.0116,-0.0284
10354,0.9998,0.0134,-0.0167,0.0231,0.0342,-0.0131
10364,1.0025,0.0102,-0.0099,0.0383,0.0189,-0.0589
10374,1.0022,0.0097,-0.0143,0.1299,0.0647,-0.0131
10384,0.9993,0.0073,-0.0140,0.0231,0.1105,0.0327
10394,1.0030,0.0080,-0.0157,-0.0075,0.0495,-0.0742
10404,1.0020,0.0033,-0.0157,-0.0533,0.0647,-0.1047
10414,0.9973,0.0097,-0.0140,-0.0075,0.0953,-0.0589
10424,1.0069,0.0131,-0.0140,-0.0533,0.1105,-0.1047
10434,1.0040,0.0136,-0.0136,0.0383,0.0800,-0.0131
10444,1.0044,0.0097,-0.0102,0.0689,0.0342,-0.0742
10454,0.9995,0.0129,-0.0097,0.0383,0.0037,0.0021
10464,0.9976,0.0051,-0.0148,0.0689,-0.1643,0.1090
10474,0.9986,0.0116,-0.0152,0.0078,-0.1337,0.0937
10484,1.0062,0.0104,-0.0082,-0.0075,-0.0879,0.0021
10494,1.0017,0.0119,-0.0126,-0.0075,-0.0727,-0.0284
10504,1.0079,0.0107,-0.0201,0.0383,-0.0879,-0.0589
10514,1.0013,0.0094,-0.0165,-0.0227,-0.0116,-0.0437
10524,1.0000,0.0121,-0.0126,-0.0075,0.0037,0.0021
10534,1.0040,0.0085,-0.0186,-0.0533,0.0495,-0.0284
10544,0.9993,0.0129,-0.0174,-0.0380,0.0495,0.0327
10554,1.0013,0.0085,-0.0092,-0.0075,-0.0574,-0.0284
10564,1.0022,0.0094,-0.0152,0.0383,-0.1490,-0.0131
10574,1.0005,0.0112,-0.0131,-0.0075,-0.0879,0.0479
10584,1.0005,0.0077,-0.0145,-0.0380,-0.1490,0.0479
10594,1.0017,0.0121,-0.0143,-0.0380,-0.0269,0.0021
10604,1.0030,0.0075,-0.0087,-0.0685,0.0189,0.0327
10614,0.9986,0.0109,-0.0109,-0.0075,0.0037,0.0021
10624,1.0020,0.0112,-0.0196,-0.0075,-0.0574,0.0327
10634,0.9990,0.0092,-0.0121,0.0078,-0.0421,-0.0131
10644,1.0047,0.0109,-0.0152,0.0536,-0.0727,0.0937
10654,1.0047,0.0153,-0.0150,0.0383,-0.0421,0.0327
10664,0.9998,0.0124,-0.0051,-0.0227,-0.0116,-0.0284
10674,1.0044,0.0124,-0.0104,0.0231,0.1105,0.0327
10684,1.0025,0.0148,-0.0167,0.0231,0.0800,-0.0589
10694,0.9966,0.0087,-0.0150,0.0536,-0.0269,-0.0437
10704,1.0003,0.0131,-0.0172,-0.0380,-0.1185,-0.1200
10714,0.9973,0.0114,-0.0179,0.0078,-0.0269,0.0021
10724,1.0010,0.0075,-0.0114,0.0383,0.0037,0.0937
10734,1.0030,0.0099,-0.0126,-0.0075,0.0037,0.0785
10744,1.0022,0.0114,-0.0155,-0.0533,0.0189,-0.0131
10754,1.0032,0.0099,-0.0182,0.0536,-0.0421,0.0174
10764,1.0030,0.0119,-0.0090,0.0078,-0.0879,0.0632
10774,1.0049,0.0085,-0.0114,-0.0075,-0.0116,0.0479
10784,0.9995,0.0090,-0.0157,0.0078,-0.1185,-0.0131
10794,1.0020,0.0080,-0.0126,0.0383,0.0495,-0.0742
10804,1.0015,0.0073,-0.0145,-0.0227,0.0037,-0.0742
10814,1.0040,0.0107,-0.0133,-0.0533,0.0495,0.0327
10824,1.0037,0.0138,-0.0182,-0.0533,0.0342,-0.0284
10834,1.0030,0.0126,-0.0094,0.0536,0.0953,0.0327
10844,1.0027,0.0102,-0.0186,-0.0227,0.0037,0.0632
10854,0.9988,0.0119,-0.0131,0.0383,-0.0269,0.0479
10864,1.0047,0.0097,-0.0148,-0.0227,-0.1490,-0.0284
10874,1.0047,0.0073,-0.0162,0.0078,-0.1490,0.0021
10884,1.0067,0.0077,-0.0114,0.0078,-0.0116,0.0479
10894,1.0015,0.0102,-0.0119,0.0078,0.0800,0.0327
10904,1.0022,0.0073,-0.0126,-0.0075,0.1105,0.0785
10914,1.0054,0.0124,-0.0123,0.0383,0.1411,0.0327
10924,0.9995,0.0114,-0.0109,0.0383,0.0495,0.0479
10934,0.9983,0.0068,-0.0169,-0.0380,-0.0574,0.0327
10944,1.0000,0.0036,-0.0150,0.0689,0.0037,-0.1047
10954,1.0025,0.0073,-0.0148,0.0231,-0.0421,-0.1353
10964,0.9993,0.0107,-0.0116,0.0078,0.0189,-0.0589
10974,1.0020,0.0085,-0.0140,0.0078,0.0342,0.0327
10984,1.0054,0.0112,-0.0123,0.0078,0.1258,-0.0589
10994,1.0086,0.0107,-0.0094,0.0536,0.1258,-0.0131
11004,1.0052,0.0097,-0.0097,0.0689,0.0037,0.0174
11014,0.9995,0.0094,-0.0150,0.0078,-0.0116,0.0632
11024,1.0032,0.0116,-0.0065,0.0078,-0.1032,-0.0437
11034,1.0015,0.0090,-0.0157,0.0078,-0.1490,-0.0742
11044,1.0022,0.0082,-0.0133,0.0383,0.0495,0.0632
11054,0.9976,0.0131,-0.0128,0.0231,-0.0574,0.0479
11064,1.0042,0.0112,-0.0123,0.0231,-0.0574,-0.0131
11074,1.0047,0.0119,-0.0182,0.0231,0.0189,0.0479
11084,0.9986,0.0112,-0.0061,0.1147,-0.0421,-0.1200
11094,1.0017,0.0060,-0.0138,0.0536,-0.1185,-0.1047
11104,1.0052,0.0082,-0.0191,0.0994,-0.2406,0.0021
11114,1.0052,0.0063,-0.0145,-0.0227,-0.1643,0.0021
11124,1.0035,0.0163,-0.0133,-0.0533,-0.0727,-0.0742
11134,1.0030,0.0116,-0.0003,-0.0533,-0.0269,0.0021
11144,1.0010,0.0097,-0.0119,-0.0533,0.0342,-0.0131
11154,1.0032,0.0087,-0.0123,-0.0227,0.0037,-0.0284
11164,0.9978,0.0070,-0.0169,0.0536,0.0800,-0.1047
11174,0.9995,0.0114,-0.0182,0.0078,-0.0116,-0.0131
11184,1.0042,0.0114,-0.0162,0.0078,-0.0879,-0.0437
11194,1.0027,0.0138,-0.0121,-0.0685,-0.0574,0.0479
11204,1.0015,0.0097,-0.0174,0.0231,0.0495,-0.0131
11214,1.0042,0.0143,-0.0155,0.0231,0.0953,-0.0131
11224,1.0003,0.0168,-0.0155,-0.0075,0.0800,0.0327
11234,1.0015,0.0138,-0.0145,0.0994,-0.0269,0.0327
11244,0.9995,0.0092,-0.0119,0.1299,-0.1032,-0.0437
11254,1.0027,0.0073,-0.0155,0.1147,-0.0574,-0.0895
11264,1.0003,0.0041,-0.0177,0.0689,-0.0727,-0.0131
11274,1.0035,0.0107,-0.0104,0.0689,0.0189,0.0327
11284,1.0010,0.0136,-0.0155,-0.0380,-0.0421,-0.0284
11294,1.0064,0.0094,-0.0109,0.0231,-0.0727,0.0785
11304,1.0025,0.0102,-0.0172,0.0536,0.0189,0.1243
11314,1.0020,0.0146,-0.0182,0.0689,-0.0421,0.0479
11324,1.0037,0.0097,-0.0172,0.0383,0.0495,0.0021
11334,1.0042,0.0065,-0.0150,0.0231,-0.0269,-0.0284
11344,1.0003,0.0080,-0.0102,-0.0380,-0.0269,-0.0895
11354,1.0025,0.0060,-0.0140,0.0231,-0.1032,-0.0437
11364,1.0025,0.0099,-0.0213,-0.0838,-0.0269,0.0632
11374,0.9988,0.0146,-0.0116,-0.0838,0.1258,0.0021
11384,1.0005,0.0131,-0.0203,-0.0685,0.1411,-0.0131
11394,1.0027,0.0121,-0.0136,0.0078,0.0800,0.0479
11404,0.9978,0.0090,-0.0186,0.0841,-0.0116,-0.0437
11414,1.0032,0.0143,-0.0143,0.0689,-0.1032,0.0174
11424,1.0003,0.0131,-0.0114,0.0536,-0.0574,0.0021
11434,1.0022,0.0104,-0.0133,-0.0075,-0.0421,0.0479
11444,1.0049,0.0085,-0.0123,-0.0380,-0.0116,0.0174
11454,1.0015,0.0143,-0.0143,-0.1296,0.0800,0.0021
11464,1.0003,0.0153,-0.0145,-0.0533,0.1258,0.0021
11474,1.0044,0.0136,-0.0189,0.0689,0.0953,0.0174
11484,1.0017,0.0090,-0.0128,0.0383,0.0953,-0.0437
11494,1.0003,0.0077,-0.0082,0.0536,0.0495,-0.0895
11504,1.0020,0.0075,-0.0109,0.0689,-0.0116,-0.0284
11514,0.9978,0.0065,-0.0160,-0.0380,0.0342,0.0174
11524,1.0057,0.0116,-0.0104,-0.1144,0.0495,0.0479
11534,1.0071,0.0136,-0.0131,0.0078,0.0037,0.0937
11544,1.0005,0.0119,-0.0119,0.0078,0.0189,0.0479
11554,1.0071,0.0153,-0.0155,-0.0380,0.0953,0.0021
11564,1.0017,0.0104,-0.0182,0.0078,0.0953,-0.0131
11574,1.0040,0.0099,-0.0148,0.0689,0.0342,-0.0284
11584,1.0037,0.0090,-0.0131,0.0689,0.0647,-0.0131
11594,1.0025,0.0124,-0.0172,-0.0380,0.1716,0.0174
11604,1.0003,0.0090,-0.0136,0.0231,0.1869,0.1395
11614,1.0000,0.0134,-0.0162,-0.0533,0.1563,0.0479
11624,1.0032,0.0073,-0.0177,-0.0075,0.0037,0.0479
11634,1.0022,0.0092,-0.0191,-0.0227,-0.0421,0.0785
11644,1.0025,0.0090,-0.0104,0.0078,-0.0727,0.0479
11654,0.9981,0.0099,-0.0068,0.0841,-0.0879,-0.0437
11664,1.0020,0.0063,-0.0167,0.0536,0.0342,0.0327
11674,0.9986,0.0090,-0.0133,0.0078,0.1258,0.0479
11684,1.0025,0.0104,-0.0150,0.0078,0.1716,0.0785
11694,1.0015,0.0102,-0.0094,-0.0380,0.0037,0.0632
11704,1.0040,0.0141,-0.0150,0.0841,0.0495,0.0785
11714,1.0010,0.0114,-0.0162,0.0231,0.1411,0.0632
11724,1.0015,0.0121,-0.0131,0.0536,0.0037,-0.0284
11734,1.0010,0.0087,-0.0225,0.1147,-0.1032,-0.0895
11744,1.0008,0.0109,-0.0167,0.0231,-0.1032,-0.0589
11754,1.0022,0.0058,-0.0116,-0.0533,0.1105,-0.0131
11764,1.0032,0.0158,-0.0174,-0.0227,0.1869,0.0174
11774,1.0040,0.0114,-0.0092,-0.0380,0.1105,0.0479
11784,1.0035,0.0121,-0.0131,-0.0075,0.0342,0.1395
11794,1.0020,0.0094,-0.0136,-0.0075,-0.0727,0.0327
11804,1.0047,0.0092,-0.0155,0.0078,-0.0879,-0.0284
11814,1.0015,0.0051,-0.0111,0.0841,-0.1337,-0.0284
11824,1.0015,0.0121,-0.0145,0.0078,-0.1032,-0.0284
11834,1.0064,0.0085,-0.0123,0.0383,-0.0269,-0.0742
11844,1.0010,0.0070,-0.0169,-0.1144,-0.0879,-0.0284
11854,1.0037,0.0136,-0.0131,-0.0685,-0.0574,0.0021
11864,1.0000,0.0097,-0.0097,-0.0685,0.0953,0.0021
11874,1.0052,0.0126,-0.0131,0.0078,0.0037,-0.0589
11884,0.9998,0.0116,-0.0109,0.0231,-0.0269,0.0021
11894,1.0027,0.0107,-0.0097,0.0994,0.0495,-0.0437
11904,1.0032,0.0104,-0.0203,0.0689,0.0342,-0.0589
11914,1.0032,0.0126,-0.0111,-0.0075,0.1105,0.0174
11924,1.0020,0.0121,-0.0167,-0.0075,0.1563,0.1243
11934,1.0020,0.0055,-0.0148,0.0231,0.0495,0.0021
11944,1.0013,0.0107,-0.0191,-0.0685,0.0342,-0.0284
11954,1.0017,0.0094,-0.0133,0.0383,-0.0269,0.0937
11964,0.9983,0.0073,-0.0099,0.0841,-0.0727,-0.0284
11974,1.0020,0.0070,-0.0138,0.0841,0.0037,-0.0742
11984,1.0022,0.0068,-0.0097,0.0536,-0.0727,-0.0284
11994,1.0040,0.0077,-0.0128,0.0689,0.0953,-0.0131
12004,1.0022,0.0114,-0.0121,-0.0533,0.0953,-0.0437
12014,1.0015,0.0126,-0.0119,-0.0533,0.0647,0.0174
12024,1.0013,0.0119,-0.0114,-0.0380,0.0647,-0.0284
12034,1.0020,0.0124,-0.0104,-0.0227,-0.0269,-0.0284
12044,1.0032,0.0116,-0.0169,0.0231,-0.0727,-0.0589
12054,1.0000,0.0099,-0.0201,0.0536,-0.0421,-0.0437
12064,1.0005,0.0136,-0.0179,0.0383,-0.1185,0.0021
12074,1.0008,0.0092,-0.0150,0.0536,0.0495,0.0479
12084,0.9983,0.0082,-0.0109,0.0231,0.0342,0.1243
12094,1.0044,0.0085,-0.0157,0.0689,0.0342,0.0327
12104,1.0022,0.0097,-0.0184,0.0689,0.0342,0.0785
12114,1.0020,0.0116,-0.0133,-0.0685,-0.0116,0.0327
12124,1.0032,0.0087,-0.0128,0.0231,-0.0879,-0.0437
12134,0.9990,0.0094,-0.0160,0.0231,-0.0727,-0.0284
12144,1.0032,0.0082,-0.0102,-0.0075,-0.0879,0.0327
12154,1.0052,0.0080,-0.0133,0.1147,-0.0116,-0.0131
12164,1.0010,0.0126,-0.0152,-0.0380,0.0495,-0.0284
12174,1.0015,0.0151,-0.0160,0.0231,0.0647,0.0021
12184,1.0030,0.0155,-0.0152,0.0231,0.0037,-0.0437
12194,1.0015,0.0109,-0.0131,0.1147,-0.0269,-0.0742
12204,1.0044,0.0080,-0.0104,0.0536,-0.0574,-0.0742
12214,0.9986,0.0087,-0.0126,0.0841,-0.0269,-0.0131
12224,0.9981,0.0087,-0.0160,-0.0227,-0.0727,0.0021
12234,1.0015,0.0129,-0.0182,-0.0227,-0.0574,0.0174
12244,0.9990,0.0146,-0.0078,0.0231,-0.0727,0.0632
12254,0.9983,0.0094,-0.0131,0.1147,0.0189,0.1090
12264,1.0015,0.0109,-0.0184,0.0231,0.1258,0.0785
12274,0.9978,0.0146,-0.0126,0.0383,0.0647,0.0479
12284,1.0005,0.0102,-0.0128,0.0078,0.0037,0.0785
12294,1.0025,0.0109,-0.0155,-0.0227,0.0495,0.0174
12304,0.9995,0.0104,-0.0116,0.0383,0.1105,0.0327
12314,0.9998,0.0058,-0.0167,0.0841,0.0800,-0.0284
12324,1.0005,0.0116,-0.0148,0.0994,0.1105,0.0479
12334,1.0022,0.0119,-0.0097,-0.0075,0.0800,0.0021
12344,1.0020,0.0099,-0.0133,0.0078,0.0800,0.0785
12354,1.0022,0.0073,-0.0114,-0.0075,0.1563,0.0327
12364,1.0035,0.0107,-0.0073,0.0536,0.0037,0.0785
12374,1.0030,0.0075,-0.0116,0.0994,0.0342,0.0327
12384,1.0005,0.0080,-0.0109,-0.0075,-0.0421,-0.0284
12394,1.0010,0.0107,-0.0097,-0.0380,-0.0574,-0.0742
12404,1.0042,0.0085,-0.0111,-0.0533,-0.1490,-0.0742
12414,1.0015,0.0109,-0.0145,-0.0380,-0.1185,-0.0131
12424,1.0022,0.0112,-0.0133,-0.0533,0.0495,-0.0437
12434,1.0035,0.0124,-0.0179,-0.0227,0.0342,0.0174
12444,1.0049,0.0114,-0.0150,-0.0991,0.0953,-0.0284
12454,1.0000,0.0116,-0.0109,0.0689,0.1105,0.0174
12464,0.9995,0.0053,-0.0123,0.0994,0.0495,0.0327
12474,1.0020,0.0082,-0.0143,0.0689,0.0037,-0.0895
12484,0.9998,0.0094,-0.0179,0.0078,0.0495,-0.0895
12494,1.0025,0.0099,-0.0094,-0.0380,0.0647,-0.0284
12504,1.0005,0.0119,-0.0169,-0.0838,0.0189,0.0632
12514,0.9995,0.0116,-0.0104,-0.0227,0.0953,0.0479
12524,1.0022,0.0138,-0.0157,0.1299,0.0189,0.0327
12534,1.0022,0.0073,-0.0114,0.0841,0.0495,0.0937
12544,1.0025,0.0104,-0.0123,0.0536,0.0800,0.0327
12554,1.0062,0.0048,-0.0182,0.0689,0.0800,0.0327
12564,1.0025,0.0036,-0.0107,0.0536,-0.0727,0.0479
12574,1.0020,0.0092,-0.0119,-0.0227,-0.0421,0.0632
12584,1.0022,0.0090,-0.0143,-0.0991,0.0953,0.0021
12594,0.9990,0.0082,-0.0145,-0.0075,0.0189,-0.0437
12604,0.9998,0.0082,-0.0126,-0.0075,0.0647,-0.1047
12614,0.9981,0.0138,-0.0136,0.0536,-0.0116,-0.0437
12624,1.0025,0.0107,-0.0107,0.0689,-0.0574,0.0174
12634,1.0042,0.0104,-0.0155,-0.0227,-0.0116,-0.0589
12644,1.0035,0.0090,-0.0092,0.0078,0.0189,0.0021
12654,1.0037,0.0124,-0.0126,0.0536,0.0495,-0.0131
12664,1.0022,0.0073,-0.0165,-0.0075,0.0342,-0.0742
12674,1.0027,0.0090,-0.0126,-0.0838,0.1258,0.0174
12684,0.9995,0.0099,-0.0131,-0.0838,0.1258,-0.0284
12694,1.0017,0.0092,-0.0128,-0.0533,0.0342,-0.0895
12704,1.0010,0.0116,-0.0179,-0.0380,0.0189,-0.0284
12714,1.0017,0.0114,-0.0136,0.0383,-0.0421,-0.1047
12724,1.0030,0.0124,-0.0114,0.0231,-0.0116,0.0021
12734,0.9971,0.0112,-0.0148,0.0383,-0.1032,0.0632
12744,0.9983,0.0155,-0.0061,-0.0075,-0.0421,0.1243
12754,1.0103,0.0114,-0.0140,0.0841,-0.1032,0.2006
12764,1.0054,0.0143,-0.0107,0.1147,-0.0269,0.1853
12774,0.9986,0.0136,-0.0140,0.0383,0.0037,0.1395
12784,1.0035,0.0092,-0.0150,0.0078,0.0647,0.1243
12794,1.0027,0.0068,-0.0131,0.0383,-0.0116,0.1243
12804,1.0017,0.0051,-0.0174,-0.0227,-0.1032,0.0327
12814,1.0022,0.0068,-0.0172,0.0383,-0.0269,0.0174
12824,1.0035,0.0068,-0.0218,-0.0991,0.0342,-0.0589
12834,1.0022,0.0031,-0.0121,-0.0533,-0.0421,-0.0284
12844,1.0032,0.0126,-0.0148,-0.0227,-0.0574,-0.0284
12854,1.0017,0.0104,-0.0087,0.0383,-0.0116,-0.1200
12864,1.0042,0.0112,-0.0094,0.0078,-0.0421,-0.1353
12874,1.0008,0.0092,-0.0145,0.0078,-0.0421,0.0021
12884,1.0022,0.0136,-0.0165,-0.0685,0.0495,-0.0742
12894,1.0064,0.0124,-0.0136,-0.0533,0.0953,-0.1047
12904,1.0037,0.0112,-0.0160,-0.0685,-0.0116,-0.1047
12914,1.0020,0.0141,-0.0172,-0.0227,0.0647,-0.0742
12924,1.0020,0.0141,-0.0179,0.0078,0.0953,0.0174
12934,0.9978,0.0104,-0.0126,-0.0533,0.0037,-0.0131
12944,1.0030,0.0085,-0.0157,-0.0075,0.0037,-0.0437
12954,1.0052,0.0082,-0.0191,-0.0380,-0.0116,-0.0742
12964,1.0008,0.0068,-0.0070,-0.0075,0.0189,0.0632
12974,0.9998,0.0097,-0.0116,-0.0533,-0.0574,0.0021
12984,1.0015,0.0112,-0.0061,0.0536,-0.0269,0.0021
12994,1.0052,0.0126,-0.0174,-0.0075,-0.0879,-0.0589
13004,1.0069,0.0087,-0.0107,0.0231,0.0037,-0.0131
13014,1.0042,0.0060,-0.0097,0.0231,-0.0574,-0.0437
13024,1.0032,0.0068,-0.0145,0.0078,0.0037,-0.1200
13034,0.9995,0.0060,-0.0073,0.0841,0.0037,-0.2269
13044,1.0025,0.0102,-0.0150,-0.0533,0.1869,-0.0895
13054,1.0015,0.0121,-0.0087,-0.0685,0.0800,0.0021
13064,1.0057,0.0119,-0.0157,-0.0991,0.0189,0.0632
13074,0.9998,0.0180,-0.0189,-0.0380,-0.1032,0.0632
13084,1.0022,0.0143,-0.0107,0.0383,-0.1032,0.1701
13094,1.0027,0.0102,-0.0104,0.0536,-0.0574,0.1853
13104,1.0057,0.0119,-0.0152,0.0231,0.0037,0.0937
13114,1.0044,0.0082,-0.0131,0.0994,0.0495,0.1701
13124,1.0010,0.0112,-0.0150,0.0231,-0.0421,0.0479
13134,0.9998,0.0082,-0.0140,0.0536,-0.0727,0.0632
13144,1.0044,0.0029,-0.0094,0.0078,0.0342,0.1395
13154,1.0040,0.0092,-0.0169,0.0231,0.0189,0.0937
13164,0.9988,0.0097,-0.0194,-0.0075,0.0189,-0.0284
13174,0.9988,0.0063,-0.0160,0.0231,-0.0574,0.0021
13184,1.0049,0.0114,-0.0203,0.0689,-0.0421,0.0632
13194,1.0022,0.0068,-0.0172,0.0383,0.0647,0.0327
13204,1.0022,0.0094,-0.0092,-0.0075,0.1105,0.0327
13214,1.0035,0.0107,-0.0152,0.0536,0.0647,0.0479
13224,0.9998,0.0134,-0.0128,0.0383,0.0037,-0.1200
13234,1.0027,0.0143,-0.0087,-0.0380,-0.0269,-0.1353
13244,1.0010,0.0097,-0.0065,0.0383,-0.1185,-0.0131
13254,1.0049,0.0136,-0.0090,-0.0227,-0.0727,-0.0437
13264,0.9978,0.0116,-0.0143,0.0383,0.0189,0.0479
13274,0.9951,0.0102,-0.0094,0.0231,-0.0116,0.1090
13284,1.0025,0.0080,-0.0138,0.0078,0.0037,0.0632
13294,1.0020,0.0065,-0.0172,0.0078,0.0189,0.1243
13304,1.0047,0.0092,-0.0148,0.0383,-0.0574,0.0785
13314,1.0042,0.0077,-0.0143,0.0841,0.0342,0.0174
13324,1.0049,0.0065,-0.0104,0.0689,-0.0727,-0.0131
13334,1.0013,0.0085,-0.0048,0.0841,0.0342,-0.0437
13344,1.0030,0.0075,-0.0152,0.0231,0.0037,-0.0895
13354,1.0008,0.0075,-0.0102,0.0078,-0.0421,-0.0589
13364,1.0030,0.0060,-0.0119,-0.0227,-0.0421,-0.0895
13374,1.0010,0.0121,-0.0160,0.1147,0.0037,-0.0589
13384,1.0040,0.0109,-0.0116,0.1605,0.0495,-0.1200
13394,1.0017,0.0073,-0.0048,0.0841,0.1258,-0.2116
13404,1.0000,0.0077,-0.0128,-0.0075,0.1105,-0.1505
13414,1.0000,0.0094,-0.0126,0.0536,0.0953,-0.0742
13424,0.9990,0.0085,-0.0143,-0.0075,0.0342,-0.0589
13434,1.0049,0.0075,-0.0189,0.0383,0.0342,-0.0589
13444,1.0008,0.0173,-0.0136,-0.1144,0.0189,-0.0131
13454,1.0022,0.0173,-0.0123,-0.0227,-0.0574,-0.0131
13464,1.0010,0.0141,-0.0087,0.0383,-0.0421,0.0479
13474,1.0044,0.0126,-0.0152,0.1605,0.0647,0.1701
13484,0.9976,0.0092,-0.0189,0.1299,0.0495,0.1243
13494,1.0047,0.0116,-0.0082,0.1299,0.0342,0.2006
13504,1.0027,0.0097,-0.0162,0.0536,-0.0116,0.1548
13514,0.9981,0.0055,-0.0128,0.0383,-0.0116,0.0937
13524,0.9993,0.0029,-0.0087,0.0078,-0.1032,0.0327
13534,1.0017,0.0048,-0.0080,-0.0227,-0.1643,-0.0131
13544,1.0025,0.0036,-0.0075,-0.0380,-0.0269,-0.0742
13554,1.0037,0.0114,-0.0102,-0.0991,-0.0269,-0.0437
13564,1.0000,0.0121,-0.0056,-0.0075,-0.0421,-0.0589
13574,1.0030,0.0102,-0.0121,-0.0075,0.0037,-0.0131
13584,1.0040,0.0134,-0.0167,0.0383,0.0342,-0.0437
13594,0.9998,0.0134,-0.0131,0.0841,0.0037,0.0021
13604,0.9990,0.0141,-0.0194,0.0536,0.0800,-0.1047
13614,1.0020,0.0165,-0.0126,0.0536,-0.0116,-0.0589
13624,1.0042,0.0141,-0.0172,0.0078,0.0037,0.0632
13634,1.0042,0.0085,-0.0143,0.0536,-0.0116,0.0785
13644,1.0057,0.0129,-0.0121,0.0078,-0.0879,0.0479
13654,0.9990,0.0124,-0.0107,0.0536,-0.0421,0.1548
13664,1.0015,0.0058,-0.0140,0.0383,-0.0269,0.1853
13674,1.0005,0.0082,-0.0116,0.0231,-0.0421,0.1853
13684,1.0008,0.0085,-0.0121,0.0689,-0.0574,0.0479
13694,0.9986,0.0063,-0.0075,0.0689,0.0189,0.0632
13704,1.0022,0.0090,-0.0126,-0.0380,-0.0879,0.0021
13714,1.0013,0.0053,-0.0107,-0.0227,-0.0421,-0.0284
13724,1.0027,0.0090,-0.0094,-0.0075,-0.0727,-0.0284
13734,1.0040,0.0087,-0.0116,-0.0227,-0.0574,-0.0284
13744,1.0035,0.0126,-0.0107,0.0383,-0.0727,-0.0284
13754,0.9971,0.0112,-0.0119,0.0536,0.0342,-0.0589
13764,1.0008,0.0060,-0.0213,-0.0075,0.0037,-0.0131
13774,1.0013,0.0138,-0.0155,0.0383,0.0800,-0.0131
13784,1.0044,0.0112,-0.0123,0.0078,0.0647,-0.0131
13794,1.0022,0.0129,-0.0157,0.0383,0.0342,0.0174
13804,1.0022,0.0107,-0.0155,0.0536,-0.1032,0.0479
13814,0.9990,0.0109,-0.0157,0.0689,-0.1185,0.0479
13824,0.9986,0.0124,-0.0148,0.0078,0.0037,0.0327
13834,1.0005,0.0112,-0.0068,0.0536,-0.1185,0.0174
13844,1.0020,0.0097,-0.0184,0.0841,-0.1337,0.0632
13854,1.0010,0.0055,-0.0090,-0.0075,-0.0421,0.1395
13864,1.0042,0.0043,-0.0169,-0.0227,0.0037,0.1090
13874,1.0000,0.0065,-0.0148,0.0383,-0.0116,0.1395
13884,1.0027,0.0080,-0.0160,-0.0075,-0.0879,0.0479
13894,0.9990,0.0075,-0.0133,-0.0838,-0.0269,0.0021
13904,1.0022,0.0063,-0.0174,-0.0838,-0.0727,-0.0589
13914,1.0037,0.0134,-0.0160,-0.0838,-0.0421,-0.0895
13924,1.0025,0.0121,-0.0111,-0.0991,-0.0421,-0.1200
13934,1.0005,0.0131,-0.0167,-0.0227,-0.0421,-0.0895
13944,0.9983,0.0134,-0.0140,0.0078,0.0342,-0.0895
13954,0.9995,0.0143,-0.0162,0.0383,0.1258,-0.0437
13964,0.9976,0.0160,-0.0157,-0.0227,0.0800,0.0174
13974,0.9990,0.0121,-0.0085,0.0231,0.0342,0.0632
13984,1.0035,0.0109,-0.0114,0.0689,-0.1490,0.1090
13994,1.0010,0.0087,-0.0104,0.0383,-0.0116,0.0632
14004,1.0015,0.0099,-0.0092,-0.0227,0.0647,0.0937
14014,1.0008,0.0114,-0.0138,0.0231,0.0189,0.1548
14024,0.9968,0.0041,-0.0123,-0.0533,0.0800,0.0632
14034,0.9993,0.0048,-0.0080,-0.0533,0.1105,0.0785
14044,1.0027,0.0090,-0.0087,0.0078,0.0647,0.0327
14054,0.9988,0.0073,-0.0126,-0.0075,-0.0269,0.0632
14064,1.0008,0.0099,-0.0143,-0.0227,0.0037,-0.0742
14074,0.9995,0.0068,-0.0109,-0.0227,0.0647,-0.1658
14084,1.0032,0.0116,-0.0109,-0.0533,0.0647,-0.0742
14094,0.9983,0.0138,-0.0094,0.0383,0.0647,-0.1505
14104,0.9998,0.0104,-0.0155,0.0078,-0.0269,-0.0742
14114,1.0027,0.0143,-0.0157,0.0078,0.0800,-0.0284
14124,1.0027,0.0136,-0.0148,0.0231,0.1105,-0.0131
14134,0.9993,0.0160,-0.0145,-0.0227,0.0647,-0.0131
14144,1.0010,0.0119,-0.0104,-0.0227,-0.1032,0.0021
14154,1.0032,0.0131,-0.0116,0.0689,-0.0727,0.1090
14164,0.9998,0.0136,-0.0143,0.0536,-0.0116,0.0785
14174,1.0035,0.0092,-0.0150,0.0078,0.0495,0.1548
14184,1.0047,0.0087,-0.0116,0.0078,0.0647,0.0785
14194,1.0074,0.0104,-0.0138,-0.0227,0.0647,0.0937
14204,1.0022,0.0060,-0.0099,0.0383,0.0189,0.0632
14214,1.0030,0.0046,-0.0126,-0.0227,0.0342,0.1090
14224,1.0047,0.0060,-0.0157,0.0536,0.0037,0.1090
14234,1.0032,0.0090,-0.0169,0.0536,-0.0116,-0.0284
14244,1.0052,0.0080,-0.0123,-0.0533,0.0342,-0.0437
14254,1.0022,0.0099,-0.0114,-0.0533,0.0647,0.0174
14264,1.0015,0.0075,-0.0148,0.0078,0.0647,-0.0589
14274,1.0027,0.0119,-0.0119,-0.0075,0.1869,-0.0742
14284,0.9995,0.0129,-0.0157,0.0536,0.1258,0.0632
14294,0.9990,0.0165,-0.0126,0.0383,0.0800,0.0021
14304,1.0005,0.0155,-0.0182,0.0078,0.0037,0.0785
14314,1.0017,0.0112,-0.0133,0.0536,-0.1337,0.0785
14324,1.0027,0.0099,-0.0085,-0.0227,-0.2101,-0.0437
14334,1.0025,0.0094,-0.0145,0.0231,-0.2559,-0.0131
14344,1.0027,0.0082,-0.0090,-0.0380,-0.2559,0.0327
14354,1.0025,0.0119,-0.0167,-0.0533,-0.0727,0.1548
14364,1.0067,0.0116,-0.0145,0.0383,0.1411,0.0479
14374,0.9988,0.0094,-0.0116,0.0383,0.1563,-0.0131
14384,0.9971,0.0053,-0.0150,0.0689,0.0647,-0.0895
14394,1.0008,0.0060,-0.0174,0.0536,0.0037,-0.0284
14404,1.0022,0.0058,-0.0152,0.0841,0.0037,-0.0284
14414,1.0027,0.0033,-0.0114,-0.0380,-0.0421,0.0174
14424,1.0042,0.0070,-0.0121,-0.0685,-0.0574,0.0021
14434,1.0013,0.0148,-0.0157,-0.0227,0.0647,0.0327
14444,1.0035,0.0131,-0.0109,-0.0075,0.2174,0.0479
14454,1.0008,0.0158,-0.0114,0.0383,0.2937,0.0021
14464,1.0032,0.0136,-0.0150,0.1147,0.1411,0.0021
14474,0.9959,0.0090,-0.0152,0.1147,0.1716,-0.0284
14484,1.0010,0.0080,-0.0157,0.0078,0.1411,0.0174
14494,0.9993,0.0075,-0.0094,0.0231,0.1716,0.0327
14504,1.0037,0.0112,-0.0165,-0.0533,0.0037,0.0479
14514,1.0025,0.0112,-0.0109,-0.1144,0.0647,0.0937
14524,1.0035,0.0129,-0.0104,-0.0533,0.0189,0.0937
14534,1.0035,0.0116,-0.0167,0.0383,0.0495,-0.0131
14544,1.0020,0.0153,-0.0155,-0.0380,0.0189,-0.0895
14554,1.0027,0.0065,-0.0140,0.0078,0.0037,-0.0742
14564,1.0017,0.0068,-0.0116,0.0383,0.0037,-0.0589
14574,1.0013,0.0094,-0.0191,-0.0075,-0.0879,-0.0284
14584,1.0047,0.0077,-0.0172,-0.0380,0.0495,0.0479
14594,1.0022,0.0102,-0.0126,-0.0227,0.0495,0.0174
14604,1.0017,0.0138,-0.0189,-0.0227,-0.0421,-0.0131
14614,0.9988,0.0112,-0.0162,-0.0227,-0.0116,-0.0589
14624,1.0052,0.0148,-0.0152,0.0383,-0.0574,-0.0437
14634,1.0037,0.0136,-0.0114,0.0689,0.0647,-0.0589
14644,0.9998,0.0060,-0.0160,0.0689,-0.0421,-0.1047
14654,1.0032,0.0116,-0.0094,0.0078,-0.0879,-0.0895
14664,1.0020,0.0092,-0.0061,-0.0075,-0.0269,-0.0437
14674,1.0013,0.0087,-0.0131,-0.0075,-0.0421,-0.0437
14684,1.0067,0.0104,-0.0162,-0.0380,-0.0116,-0.0284
14694,1.0022,0.0107,-0.0085,0.0231,0.0342,-0.0131
14704,1.0035,0.0155,-0.0140,0.0383,0.0189,0.0479
14714,0.9998,0.0097,-0.0053,-0.0227,-0.0269,0.1243
14724,1.0022,0.0082,-0.0104,0.0383,-0.0574,-0.0284
14734,1.0013,0.0043,-0.0152,0.1147,-0.1185,-0.0589
14744,1.0030,0.0065,-0.0143,0.0383,-0.0574,0.0479
14754,1.0042,0.0109,-0.0109,-0.0380,-0.0421,0.0174
14764,1.0015,0.0097,-0.0085,-0.0838,-0.0727,-0.0589
14774,1.0020,0.0104,-0.0165,-0.0838,0.0342,-0.0437
14784,1.0003,0.0094,-0.0136,0.0383,0.0342,0.0479
14794,1.0027,0.0148,-0.0167,0.0383,-0.0269,0.0174
14804,1.0005,0.0107,-0.0179,0.0078,0.0037,0.0174
14814,1.0032,0.0141,-0.0126,0.0689,-0.0269,0.0479
14824,1.0040,0.0097,-0.0143,-0.0075,0.0495,0.1090
14834,1.0008,0.0065,-0.0165,-0.0533,-0.1185,0.0785
14844,1.0062,0.0077,-0.0148,-0.0533,-0.1490,0.0479
14854,1.0044,0.0065,-0.0165,-0.0227,-0.1185,0.0021
14864,1.0040,0.0065,-0.0152,-0.0227,-0.0574,0.0021
14874,1.0005,0.0146,-0.0070,-0.0685,0.0800,0.0479
14884,1.0013,0.0099,-0.0126,0.0536,0.0495,0.0632
14894,1.0003,0.0119,-0.0140,0.0536,0.0189,0.0479
14904,1.0022,0.0116,-0.0114,0.0383,0.0037,0.0174
14914,1.0037,0.0090,-0.0126,0.0841,-0.0116,-0.0131
14924,1.0030,0.0073,-0.0136,0.0994,-0.0574,-0.0131
14934,1.0017,0.0148,-0.0073,0.0536,-0.1185,-0.0589
14944,0.9978,0.0107,-0.0082,0.0841,0.0037,0.0174
14954,1.0005,0.0126,-0.0148,-0.0685,-0.0116,-0.0437
14964,0.9998,0.0131,-0.0107,-0.0227,-0.0421,-0.0131
14974,1.0027,0.0082,-0.0140,-0.0075,-0.0421,-0.0131
14984,1.0022,0.0124,-0.0131,-0.0075,0.0800,-0.0437
14994,1.0013,0.0090,-0.0078,0.0536,0.0800,-0.1200
15004,1.0037,0.0107,-0.0094,0.0689,-0.0269,-0.0742
15014,1.0049,0.0058,-0.0082,0.0231,-0.0269,0.0174
15024,0.9990,0.0082,-0.0167,-0.0227,0.0037,-0.0437
15034,1.0015,0.0097,-0.0167,0.0078,-0.0116,0.0021
15044,1.0079,0.0097,-0.0155,-0.0533,-0.0574,0.1090
15054,1.0022,0.0134,-0.0104,0.0078,-0.1032,0.0174
15064,1.0022,0.0109,-0.0128,0.0841,0.0037,0.0174
15074,1.0015,0.0129,-0.0121,0.0231,0.1563,-0.0131
15084,1.0037,0.0099,-0.0218,0.0841,0.1105,-0.0589
15094,0.9988,0.0114,-0.0162,-0.0075,0.0953,-0.0284
15104,1.0027,0.0109,-0.0143,-0.0380,-0.0421,-0.0437
15114,0.9995,0.0131,-0.0160,-0.0075,-0.0269,-0.0437
15124,1.0008,0.0087,-0.0133,-0.0380,-0.0116,-0.0589
15134,0.9998,0.0085,-0.0123,-0.0380,0.1105,0.0479
15144,0.9983,0.0124,-0.0162,0.0689,0.0800,0.0632
15154,1.0027,0.0126,-0.0184,0.0383,0.1411,-0.0131
15164,1.0027,0.0048,-0.0107,-0.0227,0.1105,0.0174
15174,1.0015,0.0094,-0.0099,0.0536,0.0800,0.0632
15184,1.0015,0.0043,-0.0107,0.0231,0.0495,-0.0284
15194,1.0022,0.0119,-0.0107,-0.0075,0.0495,-0.0284
15204,1.0027,0.0109,-0.0162,-0.0838,0.0495,0.0021
15214,1.0044,0.0121,-0.0104,-0.0533,0.0495,0.1090
15224,1.0059,0.0090,-0.0097,-0.0838,-0.0116,0.0632
15234,1.0027,0.0085,-0.0143,0.0078,0.0800,0.0479
15244,1.0040,0.0043,-0.0157,-0.0380,0.0342,0.0021
15254,1.0103,0.0068,-0.0121,0.0383,-0.0727,0.0327
