timestamp_ms,ax,ay,az,gx,gy,gz
3964,-0.0475,-0.9994,0.0208,0.0399,0.0966,-0.4973
3974,-0.0406,-1.0008,0.0215,-0.0059,0.0660,-0.4362
3984,-0.0421,-0.9959,0.0164,-0.0211,0.0508,-0.4515
3994,-0.0433,-0.9928,0.0203,-0.0211,0.0050,-0.3904
4004,-0.0384,-0.9977,0.0276,-0.0517,-0.0256,-0.1614
4014,-0.0359,-0.9952,0.0273,-0.1433,-0.0561,-0.1156
4024,-0.0362,-0.9977,0.0213,-0.1433,-0.0866,0.0066
4034,-0.0413,-1.0057,0.0201,-0.0669,-0.1019,0.1440
4044,-0.0355,-1.0038,0.0239,-0.0364,-0.0408,0.0829
4054,-0.0372,-0.9974,0.0191,0.0399,0.0508,0.0829
4064,-0.0389,-0.9967,0.0244,0.0857,0.0355,0.1134
4074,-0.0426,-1.0033,0.0138,0.1315,-0.0256,0.0676
4084,-0.0477,-0.9986,0.0186,0.1926,0.1118,-0.0392
4094,-0.0443,-1.0003,0.0169,0.2079,0.0202,0.0524
4104,-0.0460,-0.9955,0.0222,0.1163,-0.0256,0.2203
4114,-0.0477,-1.0057,0.0150,0.0705,0.0660,0.3882
4124,-0.0470,-1.0001,0.0198,0.1621,-0.0256,0.2966
4134,-0.0480,-0.9994,0.0186,0.1926,0.0202,0.0676
4144,-0.0438,-1.0018,0.0210,0.1468,-0.0408,-0.1156
4154,-0.0443,-1.0018,0.0189,0.1163,0.0050,-0.3751
4164,-0.0379,-0.9955,0.0218,0.1163,0.0202,-0.4667
4174,-0.0384,-0.9986,0.0210,0.1163,0.1118,-0.3751
4184,-0.0409,-0.9996,0.0162,0.1621,0.0660,-0.2072
4194,-0.0396,-0.9977,0.0235,0.0857,0.0355,-0.0240
4204,-0.0406,-0.9979,0.0203,0.0705,0.0050,-0.1919
4214,-0.0411,-0.9959,0.0218,0.0552,-0.0256,-0.4362
4224,-0.0421,-1.0001,0.0242,-0.0517,-0.0256,-0.6347
4234,-0.0347,-0.9947,0.0249,-0.0669,-0.0408,-0.6347
4244,-0.0409,-0.9994,0.0181,-0.0822,0.0050,-0.4209
4254,-0.0475,-0.9991,0.0184,-0.0059,-0.0103,-0.1461
4264,-0.0416,-0.9994,0.0235,-0.1280,-0.0714,0.0371
4274,-0.0428,-0.9986,0.0193,-0.0517,-0.0714,0.1898
4284,-0.0396,-0.9979,0.0203,-0.0364,-0.0103,0.1898
4294,-0.0413,-0.9977,0.0205,0.0094,0.0050,0.2661
4304,-0.0436,-0.9942,0.0157,0.0094,0.0050,0.4035
4314,-0.0352,-0.9759,0.0220,-0.0364,0.0050,0.8005
4324,-0.0472,-0.9908,0.0232,0.0094,0.0813,0.9226
4334,-0.0482,-1.0077,0.0205,0.0552,0.0966,0.3424
4344,-0.0443,-0.9935,0.0278,0.0705,0.0050,-0.1308
4354,-0.0440,-0.9935,0.0198,0.0399,0.0202,-0.1919
4364,-0.0445,-0.9996,0.0191,0.0399,0.0660,-0.2072
4374,-0.0440,-0.9996,0.0237,0.0094,-0.0256,-0.1766
4384,-0.0458,-0.9962,0.0191,-0.0059,0.0660,-0.1156
4394,-0.0453,-0.9984,0.0176,0.0399,0.0355,0.1134
4404,-0.0467,-0.9984,0.0232,0.0247,0.0508,0.1745
4414,-0.0443,-1.0001,0.0201,0.0399,-0.0256,0.2050
4424,-0.0426,-0.9984,0.0157,-0.0517,0.0355,0.0676
4434,-0.0399,-1.0013,0.0198,-0.0822,-0.0256,-0.0850
4444,-0.0411,-0.9950,0.0176,0.0094,-0.0561,0.0218
4454,-0.0416,-0.9994,0.0227,0.0247,-0.0408,-0.0698
4464,-0.0421,-0.9957,0.0227,-0.0211,0.0050,-0.0240
4474,-0.0480,-0.9996,0.0242,0.0399,-0.0103,0.0218
4484,-0.0433,-0.9986,0.0271,0.0094,0.0050,-0.0087
4494,-0.0413,-0.9991,0.0218,-0.0059,-0.0256,-0.0545
4504,-0.0416,-0.9991,0.0205,-0.0517,0.0202,-0.1614
4514,-0.0443,-0.9977,0.0160,-0.1127,-0.0408,-0.1156
4524,-0.0455,-0.9942,0.0201,-0.1280,-0.0866,-0.0087
4534,-0.0433,-1.0020,0.0167,-0.1127,-0.0408,0.0371
4544,-0.0440,-0.9979,0.0186,-0.0669,-0.0561,0.0524
4554,-0.0448,-0.9984,0.0220,-0.0822,-0.0408,-0.0087
4564,-0.0438,-0.9977,0.0205,-0.1127,-0.0103,-0.0850
4574,-0.0450,-0.9967,0.0176,-0.0517,0.0202,-0.0850
4584,-0.0445,-0.9967,0.0145,-0.0059,-0.0408,-0.0087
4594,-0.0423,-1.0016,0.0172,-0.0211,-0.0561,0.0524
4604,-0.0467,-0.9962,0.0143,-0.0059,-0.0408,0.0676
4614,-0.0399,-0.9986,0.0133,0.0705,-0.0256,0.1287
4624,-0.0448,-0.9984,0.0191,0.0399,-0.1782,0.0829
4634,-0.0433,-0.9986,0.0222,0.0094,-0.0714,-0.0392
4644,-0.0399,-0.9959,0.0198,-0.0517,-0.0256,-0.0850
4654,-0.0386,-0.9967,0.0176,0.0094,-0.0103,0.0218
4664,-0.0413,-0.9955,0.0191,-0.0669,-0.0256,0.2508
4674,-0.0480,-0.9991,0.0218,0.0094,0.0202,0.2356
4684,-0.0445,-1.0013,0.0249,0.0094,-0.0256,0.2050
4694,-0.0485,-0.9959,0.0198,-0.0669,0.0202,0.0524
4704,-0.0492,-0.9998,0.0237,-0.0669,0.0202,-0.2072
4714,-0.0409,-1.0003,0.0172,-0.0975,0.0508,-0.3293
4724,-0.0436,-0.9981,0.0181,-0.0364,0.0050,-0.1766
4734,-0.0418,-0.9974,0.0201,0.0399,-0.0408,0.0218
4744,-0.0450,-0.9989,0.0203,0.1010,-0.0714,0.1745
4754,-0.0423,-0.9937,0.0179,0.1010,-0.0103,0.2661
4764,-0.0448,-1.0011,0.0198,0.0705,0.0202,0.1287
4774,-0.0428,-0.9967,0.0186,0.1010,0.0355,-0.0240
4784,-0.0399,-0.9984,0.0160,0.0247,0.0050,-0.0240
4794,-0.0423,-1.0035,0.0242,0.1468,0.0050,0.0371
4804,-0.0445,-0.9981,0.0203,0.1621,0.0050,-0.0087
4814,-0.0445,-0.9972,0.0266,0.0857,-0.0408,-0.0850
4824,-0.0416,-0.9981,0.0210,-0.0364,0.0966,-0.1766
4834,-0.0433,-0.9967,0.0264,-0.0059,0.0660,-0.2835
4844,-0.0453,-0.9964,0.0198,-0.0517,0.0660,-0.2682
4854,-0.0426,-1.0016,0.0210,-0.2196,0.0050,-0.3598
4864,-0.0426,-0.9940,0.0184,-0.2196,0.0050,-0.3904
4874,-0.0423,-0.9989,0.0179,-0.2349,-0.0256,-0.3140
4884,-0.0440,-0.9969,0.0169,-0.2044,0.0355,-0.1461
4894,-0.0465,-1.0018,0.0181,-0.1738,0.0050,-0.2224
4904,-0.0428,-0.9972,0.0155,-0.1280,0.0508,-0.2530
4914,-0.0418,-0.9959,0.0121,-0.0211,0.0813,-0.2072
4924,-0.0394,-0.9937,0.0193,0.1621,-0.0256,0.0218
4934,-0.0421,-0.9959,0.0140,0.1468,0.0050,0.2203
4944,-0.0445,-0.9984,0.0174,0.1010,0.0050,0.2356
4954,-0.0404,-0.9942,0.0215,0.0247,0.0813,0.0218
4964,-0.0416,-0.9979,0.0186,0.0857,0.0508,-0.1156
4974,-0.0406,-1.0008,0.0213,0.1315,-0.0866,-0.2224
4984,-0.0445,-0.9969,0.0218,-0.0211,0.0202,-0.2072
4994,-0.0379,-0.9996,0.0249,0.0247,0.0202,-0.1003
5004,-0.0443,-0.9955,0.0193,-0.0211,0.0202,0.2203
5014,-0.0431,-1.0030,0.0191,-0.0669,-0.0103,0.5104
5024,-0.0450,-1.0025,0.0225,-0.0059,0.0202,0.4035
5034,-0.0428,-1.0035,0.0191,-0.0364,-0.0103,0.1440
5044,-0.0445,-1.0003,0.0186,-0.0669,0.0508,-0.1461
5054,-0.0443,-0.9979,0.0160,0.0094,-0.0256,-0.3140
5064,-0.0421,-0.9977,0.0111,0.1010,0.0202,-0.3293
5074,-0.0445,-0.9947,0.0160,0.0857,0.0355,-0.2224
5084,-0.0426,-0.9947,0.0157,0.0552,0.0050,-0.1919
5094,-0.0396,-0.9964,0.0184,0.0552,0.1118,-0.1766
5104,-0.0401,-0.9996,0.0205,0.0094,0.0202,0.0676
5114,-0.0423,-0.9969,0.0176,0.0705,-0.0408,0.0982
5124,-0.0421,-1.0018,0.0205,0.0552,-0.0714,0.0371
5134,-0.0445,-0.9974,0.0230,0.0399,-0.0408,0.0524
5144,-0.0409,-1.0006,0.0235,-0.0059,0.0355,-0.0087
5154,-0.0409,-0.9981,0.0205,-0.0669,0.0050,-0.1003
5164,-0.0428,-0.9984,0.0261,-0.1433,0.0050,-0.0545
5174,-0.0453,-1.0018,0.0239,-0.0669,-0.0103,0.0829
5184,-0.0394,-1.0013,0.0201,0.0552,-0.0256,0.1134
5194,-0.0440,-1.0033,0.0242,-0.0059,0.0050,0.2203
5204,-0.0462,-0.9962,0.0215,-0.0517,0.0050,0.2203
5214,-0.0489,-0.9981,0.0201,0.0094,-0.0103,0.1745
5224,-0.0443,-0.9981,0.0225,-0.0364,0.0813,0.0371
5234,-0.0426,-1.0006,0.0169,0.0247,0.0508,-0.1156
5244,-0.0455,-0.9945,0.0174,0.0094,-0.0256,-0.1308
5254,-0.0401,-0.9998,0.0244,-0.0364,0.0202,-0.1614
5264,-0.0431,-0.9989,0.0256,0.0247,0.0202,-0.1614
5274,-0.0443,-0.9967,0.0225,0.0552,0.0508,-0.2530
5284,-0.0426,-0.9996,0.0256,0.0705,0.0202,-0.1919
5294,-0.0404,-0.9952,0.0210,0.0552,0.0355,-0.0698
5304,-0.0428,-0.9957,0.0230,0.0094,-0.0103,0.0218
5314,-0.0386,-0.9981,0.0208,0.1010,-0.0408,0.0524
5324,-0.0436,-1.0011,0.0273,0.1010,-0.0408,-0.0087
5334,-0.0413,-0.9972,0.0244,0.1163,0.0355,0.0982
5344,-0.0406,-1.0013,0.0181,0.1621,0.0050,0.1745
5354,-0.0396,-1.0018,0.0225,0.1010,0.0202,0.0371
5364,-0.0421,-0.9955,0.0162,-0.0059,0.0050,-0.1003
5374,-0.0436,-0.9974,0.0179,-0.0211,0.0660,-0.1919
5384,-0.0460,-0.9964,0.0215,0.0247,-0.0103,-0.2072
5394,-0.0462,-0.9977,0.0210,0.0552,-0.0714,-0.1308
5404,-0.0462,-0.9947,0.0225,0.1010,-0.0561,-0.0545
5414,-0.0423,-1.0035,0.0155,0.1163,0.0508,0.0676
5424,-0.0423,-1.0006,0.0152,0.1926,0.0202,0.0982
5434,-0.0438,-0.9964,0.0196,0.1468,0.0355,0.1440
5444,-0.0480,-0.9986,0.0191,0.1315,-0.0103,0.1745
5454,-0.0389,-0.9967,0.0227,0.1468,-0.0256,0.1134
5464,-0.0428,-1.0013,0.0259,0.0399,0.0202,0.1287
5474,-0.0455,-0.9986,0.0235,-0.0517,0.0355,-0.1308
5484,-0.0391,-0.9942,0.0266,-0.0669,0.0050,-0.1614
5494,-0.0436,-0.9974,0.0244,-0.0975,-0.0103,-0.2072
5504,-0.0416,-0.9991,0.0268,-0.0211,-0.0103,-0.1003
5514,-0.0438,-0.9969,0.0184,0.0094,-0.0103,0.0066
5524,-0.0438,-0.9933,0.0232,-0.0517,-0.0103,0.0218
5534,-0.0458,-0.9930,0.0143,0.0399,0.0050,-0.0087
5544,-0.0448,-0.9989,0.0201,0.0094,0.0355,0.0066
5554,-0.0472,-0.9996,0.0208,-0.0364,-0.0256,-0.1308
5564,-0.0462,-0.9989,0.0179,-0.0364,0.0202,-0.2682
5574,-0.0421,-0.9998,0.0196,-0.0975,0.0050,-0.2224
5584,-0.0492,-0.9989,0.0157,-0.0211,0.0050,-0.1461
5594,-0.0472,-0.9977,0.0215,0.0094,0.0202,-0.0240
5604,-0.0475,-1.0001,0.0235,0.0399,-0.0103,0.0676
5614,-0.0458,-0.9969,0.0239,0.0094,0.0813,-0.0240
5624,-0.0421,-1.0020,0.0220,-0.0211,-0.0256,-0.1461
5634,-0.0416,-1.0003,0.0239,-0.0059,0.0202,-0.1614
5644,-0.0416,-1.0011,0.0213,-0.1127,0.1271,-0.2682
5654,-0.0401,-0.9947,0.0215,-0.1433,0.0202,-0.2224
5664,-0.0421,-0.9969,0.0227,-0.0822,-0.0408,-0.1308
5674,-0.0391,-0.9974,0.0225,-0.0822,0.0050,0.0676
5684,-0.0431,-0.9969,0.0210,-0.1127,-0.0103,0.0829
5694,-0.0443,-0.9950,0.0135,0.0094,-0.0866,0.1134
5704,-0.0453,-0.9991,0.0164,-0.0211,-0.0103,-0.1003
5714,-0.0413,-0.9945,0.0210,0.0094,0.0355,-0.1461
5724,-0.0404,-0.9957,0.0189,0.0094,0.0508,-0.1156
5734,-0.0416,-0.9979,0.0210,-0.0517,0.0355,-0.0850
5744,-0.0448,-1.0011,0.0237,-0.0975,0.0355,-0.1461
5754,-0.0440,-0.9984,0.0220,-0.0059,-0.0103,-0.2072
5764,-0.0401,-1.0033,0.0167,0.0247,-0.0866,-0.0850
5774,-0.0436,-1.0045,0.0242,0.0399,-0.0561,-0.0850
5784,-0.0426,-0.9996,0.0203,0.2231,-0.0561,0.0066
5794,-0.0404,-0.9952,0.0251,0.1163,0.0508,0.1134
5804,-0.0460,-0.9977,0.0242,0.1163,0.1118,0.2050
5814,-0.0418,-0.9972,0.0191,0.1163,0.1271,0.2508
5824,-0.0418,-0.9979,0.0225,0.1468,0.0966,0.1592
5834,-0.0384,-0.9952,0.0145,0.1621,0.0966,0.1287
5844,-0.0453,-0.9979,0.0215,0.1010,0.0355,0.1287
5854,-0.0453,-0.9994,0.0218,-0.0364,-0.0103,0.0371
5864,-0.0418,-0.9972,0.0196,-0.0669,0.0050,0.0218
5874,-0.0455,-0.9937,0.0152,-0.0975,-0.0256,0.0218
5884,-0.0443,-0.9979,0.0251,-0.0059,-0.0561,0.0524
5894,-0.0460,-0.9984,0.0193,-0.0669,-0.0103,-0.0698
5904,-0.0453,-0.9989,0.0157,-0.0059,-0.0408,-0.0240
5914,-0.0462,-0.9984,0.0205,-0.0211,-0.0103,-0.2072
5924,-0.0453,-0.9989,0.0218,0.0247,0.0202,-0.1614
5934,-0.0423,-0.9962,0.0174,0.0399,0.0202,-0.0545
5944,-0.0428,-1.0030,0.0205,0.1010,0.0508,0.1134
5954,-0.0409,-0.9947,0.0208,0.0552,0.0355,0.1745
5964,-0.0426,-0.9974,0.0218,0.0857,-0.0561,0.1898
5974,-0.0423,-0.9964,0.0205,0.0399,0.0660,0.0524
5984,-0.0428,-0.9996,0.0251,0.1163,0.0202,-0.0698
5994,-0.0411,-0.9977,0.0126,0.0247,-0.0256,-0.0392
6004,-0.0421,-0.9991,0.0176,-0.0059,-0.0256,0.0218
6014,-0.0458,-0.9972,0.0225,0.0247,-0.0256,0.1287
6024,-0.0462,-0.9977,0.0196,0.0857,-0.0256,0.1287
6034,-0.0406,-0.9962,0.0184,-0.0364,-0.0408,0.0218
6044,-0.0438,-0.9989,0.0227,0.0094,-0.0408,0.0371
6054,-0.0421,-1.0003,0.0201,0.0094,0.0660,0.0829
6064,-0.0411,-0.9967,0.0205,0.1315,-0.0561,-0.0087
6074,-0.0458,-0.9998,0.0205,0.1163,-0.0103,0.0218
6084,-0.0453,-0.9994,0.0227,0.0552,-0.0256,0.0982
6094,-0.0462,-1.0001,0.0176,0.0857,0.0355,0.0371
6104,-0.0431,-0.9989,0.0201,0.0552,0.0202,-0.2072
6114,-0.0448,-0.9984,0.0251,0.0247,-0.0103,-0.2682
6124,-0.0399,-0.9979,0.0155,0.0094,-0.0561,-0.2835
6134,-0.0465,-0.9998,0.0232,0.0094,0.0355,-0.1614
6144,-0.0413,-0.9991,0.0201,-0.0364,0.0508,-0.1614
6154,-0.0440,-0.9974,0.0155,-0.0211,0.0202,0.0218
6164,-0.0404,-0.9964,0.0235,-0.0059,0.1118,0.0676
6174,-0.0413,-1.0020,0.0220,-0.0364,0.0660,-0.0545
6184,-0.0401,-1.0018,0.0196,-0.1127,0.0050,-0.2224
6194,-0.0421,-0.9955,0.0189,-0.0059,0.0508,-0.2377
6204,-0.0436,-0.9994,0.0215,0.0247,-0.0714,0.0066
6214,-0.0455,-1.0060,0.0213,0.0552,0.0508,0.1745
6224,-0.0514,-1.0003,0.0249,-0.0059,0.0966,0.1440
6234,-0.0453,-0.9979,0.0181,-0.0211,0.1118,-0.0240
6244,-0.0406,-0.9979,0.0203,0.1163,0.0202,-0.0392
6254,-0.0423,-0.9998,0.0191,0.1926,-0.0256,0.1592
6264,-0.0482,-1.0016,0.0235,0.1773,0.0660,0.3730
6274,-0.0443,-1.0013,0.0254,0.1010,0.0660,0.2508
6284,-0.0399,-0.9955,0.0191,0.0399,0.0050,0.0829
6294,-0.0436,-0.9972,0.0181,0.0552,-0.0103,-0.1614
6304,-0.0426,-0.9984,0.0208,-0.0364,-0.0561,-0.2835
6314,-0.0433,-0.9967,0.0213,0.0705,0.0355,-0.0545
6324,-0.0450,-0.9937,0.0251,-0.0364,-0.0256,-0.0545
6334,-0.0418,-0.9998,0.0230,-0.0669,-0.0408,-0.1766
6344,-0.0404,-0.9996,0.0264,-0.0975,0.0813,-0.3446
6354,-0.0450,-0.9964,0.0189,-0.1127,0.0355,-0.3293
6364,-0.0455,-0.9950,0.0193,-0.0364,0.0355,-0.1156
6374,-0.0433,-1.0003,0.0155,0.0399,0.0813,-0.0087
6384,-0.0404,-0.9974,0.0232,-0.0517,0.0050,-0.0087
6394,-0.0389,-0.9935,0.0198,-0.0517,0.0355,-0.1003
6404,-0.0409,-0.9942,0.0201,0.0094,-0.0256,-0.1003
6414,-0.0455,-0.9984,0.0152,0.0552,0.0050,0.0066
6424,-0.0472,-0.9974,0.0186,0.0247,0.0355,0.1134
6434,-0.0462,-0.9989,0.0230,0.0247,0.0050,0.0371
6444,-0.0421,-1.0025,0.0198,0.0705,-0.0561,-0.1003
6454,-0.0453,-0.9994,0.0239,0.0247,0.0508,-0.1156
6464,-0.0472,-1.0033,0.0215,0.0552,0.0508,-0.0240
6474,-0.0436,-0.9962,0.0242,0.0247,0.0050,0.1134
6484,-0.0443,-0.9950,0.0186,0.1010,-0.0103,0.3119
6494,-0.0467,-1.0006,0.0230,0.0247,0.0202,0.2356
6504,-0.0465,-0.9974,0.0213,0.0552,0.0202,0.1440
6514,-0.0458,-0.9942,0.0256,0.0247,0.0508,-0.0240
6524,-0.0436,-0.9998,0.0174,-0.0211,0.0355,-0.2682
6534,-0.0428,-0.9972,0.0201,-0.1127,0.0660,-0.4820
6544,-0.0470,-1.0018,0.0268,-0.0975,0.0202,-0.4973
6554,-0.0423,-0.9986,0.0205,-0.0517,0.0813,-0.5125
6564,-0.0436,-0.9967,0.0186,-0.0517,-0.0866,-0.2682
6574,-0.0448,-0.9981,0.0174,0.0399,0.0202,0.0524
6584,-0.0416,-1.0028,0.0160,0.0094,0.0050,0.2050
6594,-0.0421,-0.9986,0.0193,0.0857,0.0050,0.2661
6604,-0.0455,-1.0016,0.0126,0.0247,0.1118,-0.0545
6614,-0.0418,-0.9969,0.0193,0.0399,0.1271,-0.1919
6624,-0.0438,-0.9962,0.0225,-0.0211,0.0050,-0.1614
6634,-0.0438,-0.9940,0.0232,-0.0211,-0.0408,-0.1003
6644,-0.0443,-0.9945,0.0205,0.0399,-0.0714,0.0524
6654,-0.0448,-0.9981,0.0196,0.0247,0.0202,0.1134
6664,-0.0448,-0.9989,0.0225,0.0094,0.0660,0.0524
6674,-0.0467,-1.0013,0.0218,0.0247,0.0508,-0.0392
6684,-0.0448,-0.9989,0.0225,-0.0517,0.0202,-0.0545
6694,-0.0465,-0.9967,0.0208,-0.1433,0.0660,-0.1919
6704,-0.0477,-0.9994,0.0143,-0.1127,0.0813,-0.2988
6714,-0.0443,-0.9967,0.0162,-0.1127,-0.0408,-0.2224
6724,-0.0421,-0.9967,0.0196,-0.0669,-0.0408,-0.0698
6734,-0.0443,-0.9984,0.0198,0.0399,-0.0866,0.0218
6744,-0.0433,-0.9984,0.0172,0.0705,-0.0408,-0.1461
6754,-0.0421,-1.0011,0.0230,0.0399,0.0355,-0.2682
6764,-0.0404,-0.9994,0.0155,0.0705,0.0355,-0.2835
6774,-0.0433,-0.9974,0.0232,0.0857,0.0050,-0.2224
6784,-0.0509,-1.0001,0.0276,0.0399,0.0813,0.0066
6794,-0.0426,-0.9986,0.0186,0.0094,0.0202,0.0829
6804,-0.0421,-0.9962,0.0247,-0.0975,-0.0408,0.1440
6814,-0.0411,-1.0013,0.0235,-0.0059,-0.0714,0.1592
6824,-0.0409,-0.9945,0.0210,-0.0059,-0.0714,0.1440
6834,-0.0450,-0.9967,0.0235,-0.0364,-0.0103,0.0829
6844,-0.0470,-0.9957,0.0213,-0.0517,0.0508,0.0371
6854,-0.0467,-1.0042,0.0157,0.0247,0.0508,0.1134
6864,-0.0440,-1.0006,0.0126,0.0857,0.0660,0.0982
6874,-0.0470,-1.0013,0.0213,-0.0059,0.0202,-0.0087
6884,-0.0482,-0.9969,0.0167,-0.0975,0.0050,-0.0545
6894,-0.0472,-1.0006,0.0169,-0.0364,-0.0408,-0.0850
6904,-0.0450,-0.9986,0.0184,-0.0211,-0.0256,-0.0392
6914,-0.0426,-0.9979,0.0123,-0.0211,0.0355,-0.1766
6924,-0.0431,-0.9996,0.0145,-0.0059,-0.0408,-0.1614
6934,-0.0433,-0.9994,0.0138,0.0705,-0.0561,-0.1614
6944,-0.0433,-0.9979,0.0198,0.0705,-0.0561,-0.1614
6954,-0.0384,-1.0018,0.0201,-0.0059,-0.0103,-0.1919
6964,-0.0391,-0.9996,0.0227,0.0552,-0.0408,-0.1308
6974,-0.0416,-0.9989,0.0232,0.1315,-0.0408,-0.1003
6984,-0.0416,-0.9964,0.0237,-0.0059,-0.0561,0.0829
6994,-0.0411,-0.9996,0.0189,0.0094,-0.0561,0.1440
7004,-0.0418,-1.0013,0.0198,-0.0059,-0.0714,0.1134
7014,-0.0433,-0.9984,0.0172,0.0094,-0.0256,0.0676
7024,-0.0433,-1.0011,0.0191,0.0247,0.0355,-0.0240
7034,-0.0465,-0.9913,0.0256,0.0399,0.0202,-0.1461
7044,-0.0423,-1.0023,0.0164,0.0399,0.0813,-0.1766
7054,-0.0470,-0.9991,0.0196,0.0705,0.0355,0.0524
7064,-0.0455,-0.9952,0.0179,0.0399,0.0508,0.2508
7074,-0.0436,-1.0003,0.0186,0.0399,-0.0408,0.3577
7084,-0.0467,-0.9979,0.0213,0.0552,-0.0408,0.0676
7094,-0.0458,-0.9981,0.0162,-0.0822,0.0050,-0.2530
7104,-0.0443,-1.0018,0.0150,-0.1127,0.0202,-0.4362
7114,-0.0394,-1.0008,0.0218,-0.1585,0.0050,-0.4515
7124,-0.0438,-0.9969,0.0210,-0.0669,-0.0103,-0.3598
7134,-0.0460,-1.0025,0.0247,-0.0517,0.0050,-0.1614
7144,-0.0453,-1.0008,0.0232,-0.0517,0.0050,0.0371
7154,-0.0396,-0.9962,0.0230,0.0399,0.0050,0.0524
7164,-0.0386,-0.9979,0.0218,-0.0517,-0.0103,0.1134
7174,-0.0423,-0.9962,0.0235,-0.0059,0.0508,-0.0240
7184,-0.0359,-0.9981,0.0176,-0.0059,0.0202,-0.0545
7194,-0.0428,-0.9959,0.0172,-0.0517,0.0050,0.0218
7204,-0.0431,-0.9979,0.0235,0.0094,-0.0256,0.0829
7214,-0.0421,-1.0008,0.0162,-0.0059,-0.0866,0.0371
7224,-0.0436,-0.9996,0.0227,-0.0211,-0.0103,-0.0087
7234,-0.0492,-0.9979,0.0227,-0.0211,-0.0866,-0.0240
7244,-0.0494,-1.0016,0.0176,-0.0059,-0.0561,-0.1308
7254,-0.0438,-0.9996,0.0152,0.0247,-0.0103,-0.0240
7264,-0.0460,-0.9972,0.0213,0.0552,-0.0714,0.1440
7274,-0.0453,-0.9986,0.0191,0.0705,0.0050,0.3119
7284,-0.0406,-0.9994,0.0278,0.0094,0.0050,0.2508
7294,-0.0450,-0.9984,0.0201,0.0247,0.0202,0.0982
7304,-0.0406,-0.9974,0.0181,-0.0517,0.0050,-0.0698
7314,-0.0445,-1.0006,0.0174,-0.0669,0.0202,-0.1156
7324,-0.0426,-0.9979,0.0261,-0.0059,0.0202,-0.2530
7334,-0.0391,-0.9955,0.0218,-0.1127,0.1271,-0.1766
7344,-0.0433,-0.9986,0.0184,-0.0822,0.0355,-0.1614
7354,-0.0438,-1.0023,0.0237,-0.0517,0.0355,-0.1614
7364,-0.0431,-0.9969,0.0261,-0.0669,-0.0561,-0.0545
7374,-0.0379,-1.0003,0.0169,-0.0517,0.0202,-0.1156
7384,-0.0438,-0.9962,0.0210,-0.0211,0.0508,-0.0087
7394,-0.0418,-0.9994,0.0176,0.0094,0.0050,0.2050
7404,-0.0431,-0.9955,0.0213,-0.0211,0.0508,0.4188
7414,-0.0416,-0.9933,0.0189,-0.0517,-0.0256,0.4951
7424,-0.0406,-1.0016,0.0247,-0.0059,-0.0408,0.4188
7434,-0.0440,-1.0030,0.0225,0.1163,-0.0256,0.2814
7444,-0.0445,-1.0011,0.0203,0.1010,0.0508,0.0524
7454,-0.0433,-0.9945,0.0210,0.1315,-0.0714,0.0066
7464,-0.0433,-0.9959,0.0227,0.2079,0.0050,0.0829
7474,-0.0475,-0.9952,0.0213,0.0552,0.0202,0.0524
7484,-0.0453,-0.9947,0.0164,0.1163,0.0050,0.2508
7494,-0.0482,-0.9959,0.0218,0.0094,0.0355,0.1745
7504,-0.0413,-0.9969,0.0210,0.0094,-0.0714,0.0829
7514,-0.0465,-0.9989,0.0174,-0.0364,0.0050,-0.1614
7524,-0.0440,-0.9989,0.0210,-0.0364,-0.0103,-0.2682
7534,-0.0450,-0.9972,0.0138,-0.0211,-0.0714,-0.3140
7544,-0.0455,-0.9986,0.0208,-0.0517,0.0202,-0.1766
7554,-0.0440,-1.0033,0.0208,-0.0364,-0.0103,0.0371
7564,-0.0413,-1.0008,0.0145,0.0705,-0.0103,0.1134
7574,-0.0426,-1.0003,0.0230,0.0247,0.0508,0.0982
7584,-0.0426,-0.9989,0.0152,-0.0059,-0.0408,0.0066
7594,-0.0460,-0.9969,0.0213,0.0552,0.0355,-0.1308
7604,-0.0431,-0.9962,0.0218,-0.0211,0.0660,-0.2224
7614,-0.0453,-0.9957,0.0249,0.0399,-0.0103,-0.1919
7624,-0.0423,-1.0011,0.0181,0.0094,0.0050,-0.1766
7634,-0.0443,-0.9981,0.0191,0.0399,0.0813,-0.0087
7644,-0.0487,-1.0016,0.0176,0.1163,0.1271,-0.0087
7654,-0.0467,-0.9991,0.0135,0.0705,0.0966,0.0371
7664,-0.0460,-1.0040,0.0201,0.1010,0.0355,0.0218
7674,-0.0443,-0.9969,0.0215,0.1010,0.0660,-0.0698
7684,-0.0428,-0.9974,0.0237,0.1468,-0.0256,0.0066
7694,-0.0467,-1.0016,0.0196,0.0399,-0.0256,0.0676
7704,-0.0443,-0.9962,0.0239,0.1315,0.0050,0.0371
7714,-0.0455,-0.9969,0.0215,0.0552,-0.0103,0.0371
7724,-0.0455,-0.9955,0.0155,0.1468,0.0355,0.0371
7734,-0.0431,-0.9994,0.0232,0.0705,-0.0561,0.1440
7744,-0.0416,-0.9981,0.0138,0.0552,-0.0103,0.0371
7754,-0.0416,-0.9991,0.0271,0.0247,0.0202,0.0218
7764,-0.0453,-0.9996,0.0235,-0.0517,0.0508,0.0982
7774,-0.0423,-0.9991,0.0186,-0.0517,0.0508,-0.0392
7784,-0.0436,-1.0008,0.0174,-0.0364,-0.0561,0.0066
7794,-0.0465,-1.0016,0.0145,-0.0975,-0.0408,0.0066
7804,-0.0411,-1.0023,0.0237,-0.0364,0.0050,-0.0392
7814,-0.0445,-1.0008,0.0203,-0.0059,0.0202,0.0371
7824,-0.0436,-0.9994,0.0218,-0.0059,0.0202,-0.1766
7834,-0.0401,-0.9974,0.0174,-0.0211,0.0050,-0.2377
7844,-0.0411,-0.9979,0.0189,0.0705,0.0660,0.0218
7854,-0.0448,-0.9979,0.0179,0.0857,0.0508,0.1134
7864,-0.0396,-0.9984,0.0218,0.0552,-0.0103,0.2661
7874,-0.0458,-0.9989,0.0174,0.0552,-0.0256,0.1898
7884,-0.0423,-0.9940,0.0123,0.0552,-0.0103,0.0829
7894,-0.0504,-1.0003,0.0191,0.0247,-0.0714,-0.0698
7904,-0.0396,-1.0003,0.0225,0.0094,0.0660,-0.1614
7914,-0.0428,-0.9972,0.0213,-0.0211,0.0355,-0.1919
7924,-0.0445,-0.9972,0.0172,-0.0669,0.0508,-0.0240
7934,-0.0453,-1.0001,0.0225,-0.0211,0.0202,-0.0240
7944,-0.0458,-0.9996,0.0215,-0.0211,-0.0408,-0.1156
7954,-0.0416,-0.9957,0.0225,0.0094,-0.0103,-0.1614
7964,-0.0423,-0.9986,0.0222,0.0552,-0.0714,-0.1156
7974,-0.0440,-0.9984,0.0155,0.0857,-0.0866,-0.0240
7984,-0.0482,-0.9981,0.0210,0.0857,0.0202,0.0676
7994,-0.0413,-0.9991,0.0213,0.0094,0.0355,0.1898
8004,-0.0413,-1.0008,0.0198,0.0247,0.0355,0.1287
8014,-0.0455,-0.9979,0.0205,0.0399,0.0050,0.1287
8024,-0.0411,-0.9969,0.0210,0.0705,0.0050,-0.1156
8034,-0.0431,-0.9979,0.0271,0.0399,0.0050,-0.2224
8044,-0.0465,-0.9986,0.0208,-0.0364,-0.0714,-0.2224
8054,-0.0431,-0.9998,0.0186,0.0094,-0.0561,-0.1308
8064,-0.0428,-0.9989,0.0201,0.0705,-0.0408,-0.0240
8074,-0.0436,-1.0023,0.0220,-0.0211,-0.0103,-0.0392
8084,-0.0448,-0.9981,0.0198,-0.0059,0.1118,-0.0698
8094,-0.0455,-0.9981,0.0162,0.0247,0.0355,-0.1308
8104,-0.0416,-1.0003,0.0225,0.0552,0.0660,0.0066
8114,-0.0433,-0.9974,0.0208,0.1163,0.0202,0.1745
8124,-0.0436,-0.9974,0.0198,0.0705,0.0508,0.1440
8134,-0.0421,-0.9994,0.0227,-0.0211,0.0966,0.0829
8144,-0.0443,-0.9996,0.0239,0.0247,0.0508,-0.1308
8154,-0.0421,-0.9989,0.0225,0.0552,0.0050,-0.3293
8164,-0.0389,-0.9996,0.0237,0.0094,0.0508,-0.2682
8174,-0.0423,-0.9989,0.0210,-0.0211,0.0050,-0.1461
8184,-0.0470,-0.9998,0.0203,-0.0364,-0.0103,0.1898
8194,-0.0436,-0.9986,0.0222,0.0399,0.0050,0.3119
8204,-0.0431,-0.9986,0.0259,0.0399,-0.0103,0.2508
8214,-0.0475,-0.9957,0.0193,0.0552,-0.0408,0.2966
8224,-0.0455,-0.9972,0.0208,0.0399,0.0202,0.2203
8234,-0.0448,-0.9994,0.0160,0.0399,0.1118,-0.0087
8244,-0.0416,-0.9955,0.0138,0.0552,0.0050,-0.0240
8254,-0.0426,-0.9986,0.0242,0.0399,-0.0866,0.0066
8264,-0.0389,-0.9974,0.0205,0.1010,-0.0103,-0.0087
8274,-0.0433,-0.9974,0.0213,0.1315,0.0202,0.0066
8284,-0.0409,-1.0003,0.0176,0.1010,0.0355,0.1592
8294,-0.0465,-0.9998,0.0169,0.0094,0.0050,0.0829
8304,-0.0436,-0.9986,0.0191,-0.0059,-0.0408,0.0066
8314,-0.0421,-0.9981,0.0220,-0.0211,0.0202,-0.0545
8324,-0.0465,-0.9957,0.0210,-0.0211,-0.0714,-0.1766
8334,-0.0450,-1.0001,0.0232,0.0247,-0.0714,0.0218
8344,-0.0436,-0.9989,0.0259,0.0705,-0.0866,-0.0087
8354,-0.0462,-1.0008,0.0203,-0.0517,0.0202,0.0524
8364,-0.0404,-0.9998,0.0256,0.0399,0.0050,0.2203
8374,-0.0489,-0.9957,0.0181,0.0552,0.0508,0.1745
8384,-0.0443,-1.0008,0.0150,0.0705,0.0355,0.0371
8394,-0.0455,-0.9947,0.0203,0.0094,0.0813,-0.2377
8404,-0.0416,-0.9974,0.0203,-0.0059,-0.0103,-0.3140
8414,-0.0448,-0.9950,0.0208,-0.0517,0.0050,-0.1308
8424,-0.0460,-1.0038,0.0189,-0.0822,0.0050,-0.1766
8434,-0.0431,-0.9972,0.0268,-0.0517,-0.0561,-0.1308
8444,-0.0401,-1.0006,0.0184,0.0705,-0.0256,0.0066
8454,-0.0423,-0.9986,0.0191,0.1773,-0.0561,0.1134
8464,-0.0438,-1.0016,0.0213,0.1468,-0.0408,0.2966
8474,-0.0477,-1.0008,0.0196,0.0094,-0.0408,0.3730
8484,-0.0418,-1.0003,0.0172,0.0247,-0.0256,0.2814
8494,-0.0423,-0.9974,0.0220,0.0399,-0.0103,0.0829
8504,-0.0453,-1.0040,0.0218,0.0857,-0.0103,-0.0240
8514,-0.0416,-0.9996,0.0145,0.0857,0.0050,-0.0240
8524,-0.0443,-0.9977,0.0193,0.0094,0.0050,-0.1156
8534,-0.0460,-0.9994,0.0186,0.0705,0.0355,-0.0392
8544,-0.0475,-1.0001,0.0222,0.0705,0.0355,0.0524
8554,-0.0433,-0.9994,0.0172,0.0399,0.0355,0.1287
8564,-0.0440,-0.9979,0.0210,0.0399,0.0202,0.0982
8574,-0.0416,-0.9967,0.0242,-0.0364,-0.0256,0.0982
8584,-0.0455,-1.0038,0.0174,-0.0211,0.0202,0.0676
8594,-0.0458,-0.9974,0.0169,0.0094,0.0202,0.0676
8604,-0.0433,-0.9955,0.0237,-0.0364,0.0508,-0.0240
8614,-0.0436,-0.9969,0.0145,-0.0059,-0.0103,-0.0698
8624,-0.0411,-0.9998,0.0242,-0.0211,-0.0103,-0.1003
8634,-0.0443,-1.0001,0.0266,-0.0669,0.0355,-0.1308
8644,-0.0458,-0.9984,0.0227,-0.1738,-0.0256,-0.1156
8654,-0.0411,-1.0016,0.0186,-0.0822,-0.0256,-0.1003
8664,-0.0480,-0.9977,0.0205,-0.0822,-0.0408,0.0982
8674,-0.0462,-0.9981,0.0167,-0.0822,-0.0256,0.0676
8684,-0.0492,-0.9981,0.0191,-0.0517,0.0050,0.0218
8694,-0.0448,-0.9989,0.0179,-0.1127,-0.0714,0.0524
8704,-0.0436,-0.9964,0.0174,-0.1127,-0.0256,-0.0850
8714,-0.0426,-1.0028,0.0167,-0.0975,0.0660,-0.2072
8724,-0.0477,-0.9991,0.0196,-0.0364,0.0050,-0.1308
8734,-0.0450,-0.9962,0.0160,-0.0059,-0.0103,-0.1308
8744,-0.0489,-0.9986,0.0247,0.0705,-0.0256,0.0066
8754,-0.0436,-1.0013,0.0215,0.1773,0.0508,0.0982
8764,-0.0470,-0.9974,0.0169,0.1621,0.0202,0.0524
8774,-0.0418,-1.0016,0.0157,0.0094,0.0202,0.0066
8784,-0.0421,-0.9972,0.0196,0.0552,0.0355,-0.0240
8794,-0.0433,-0.9979,0.0201,0.0705,0.0660,0.0066
8804,-0.0413,-1.0011,0.0162,0.0094,-0.0256,-0.0698
8814,-0.0399,-0.9989,0.0181,-0.0059,0.0202,-0.0087
8824,-0.0438,-0.9984,0.0244,0.0094,0.0355,-0.0392
8834,-0.0423,-0.9969,0.0205,-0.0975,0.0660,-0.1461
8844,-0.0426,-1.0008,0.0181,-0.1433,0.0355,-0.1308
8854,-0.0423,-0.9935,0.0218,-0.0975,0.0355,-0.1308
8864,-0.0448,-0.9974,0.0210,-0.1585,-0.0256,0.0371
8874,-0.0465,-1.0006,0.0215,-0.0975,-0.0561,0.1134
8884,-0.0477,-0.9996,0.0218,-0.0975,-0.0866,0.2203
8894,-0.0448,-0.9979,0.0218,-0.0364,-0.0256,0.2508
8904,-0.0458,-0.9977,0.0191,-0.0364,-0.0561,0.0066
8914,-0.0438,-0.9959,0.0218,-0.0059,0.0202,-0.0850
8924,-0.0472,-0.9969,0.0230,-0.1127,0.0202,-0.1614
8934,-0.0396,-0.9947,0.0164,-0.0822,-0.0103,-0.0545
8944,-0.0462,-0.9950,0.0179,-0.0364,-0.0103,0.0524
8954,-0.0391,-0.9972,0.0179,0.0705,-0.0561,0.0371
8964,-0.0423,-0.9981,0.0208,-0.0059,-0.0408,-0.0545
8974,-0.0443,-0.9989,0.0155,0.0094,0.0202,-0.2072
8984,-0.0436,-0.9974,0.0208,0.1010,0.0050,-0.1919
8994,-0.0453,-1.0016,0.0208,0.0094,0.0508,-0.1614
9004,-0.0426,-0.9955,0.0179,0.0094,0.0355,-0.1614
9014,-0.0428,-0.9964,0.0227,0.0094,0.0355,-0.0698
9024,-0.0428,-1.0030,0.0203,-0.0517,0.0355,-0.0240
9034,-0.0453,-0.9989,0.0176,-0.0517,0.0202,-0.1156
9044,-0.0470,-0.9991,0.0235,0.0705,-0.0561,-0.1766
9054,-0.0460,-0.9920,0.0179,-0.0211,0.0355,-0.1614
9064,-0.0443,-1.0008,0.0208,0.0094,-0.0103,-0.1156
9074,-0.0455,-0.9959,0.0198,0.0552,0.0508,-0.0240
9084,-0.0431,-0.9979,0.0126,0.0552,0.0508,-0.0545
9094,-0.0465,-1.0001,0.0230,0.0094,-0.0256,0.0829
9104,-0.0443,-0.9947,0.0220,0.0247,0.0355,0.0066
9114,-0.0453,-0.9996,0.0189,0.0247,0.0355,-0.1156
9124,-0.0448,-1.0011,0.0169,0.0094,-0.0256,-0.1308
9134,-0.0389,-0.9964,0.0162,0.0247,-0.0103,-0.1614
9144,-0.0460,-0.9950,0.0225,-0.0517,0.0355,-0.1156
9154,-0.0482,-0.9979,0.0176,-0.0822,-0.0408,-0.0545
9164,-0.0462,-1.0006,0.0160,-0.0059,0.0202,-0.1766
9174,-0.0450,-0.9994,0.0249,0.1010,0.0508,-0.1766
9184,-0.0482,-0.9991,0.0167,0.0094,0.0966,-0.1766
9194,-0.0448,-1.0001,0.0184,0.0094,0.0355,-0.0240
9204,-0.0440,-1.0013,0.0172,0.0094,-0.0256,0.0829
9214,-0.0460,-0.9959,0.0145,0.0399,-0.0103,0.1440
9224,-0.0440,-0.9991,0.0143,0.0552,0.0355,0.1745
9234,-0.0426,-0.9979,0.0189,0.0705,-0.0103,-0.0087
9244,-0.0462,-0.9984,0.0271,0.0857,-0.0561,-0.1156
9254,-0.0509,-0.9996,0.0203,0.0705,0.0050,-0.1614
9264,-0.0423,-0.9972,0.0215,0.0094,0.0202,-0.1308
9274,-0.0433,-0.9974,0.0176,0.0857,-0.0408,-0.1156
9284,-0.0445,-1.0028,0.0251,0.0705,0.0050,0.0218
9294,-0.0445,-0.9981,0.0232,0.0552,-0.0408,0.0524
9304,-0.0480,-0.9994,0.0218,-0.0517,0.0660,-0.0545
9314,-0.0465,-1.0001,0.0218,-0.0364,-0.0408,-0.0850
9324,-0.0443,-1.0040,0.0193,-0.0364,0.0202,-0.1003
9334,-0.0421,-0.9989,0.0193,-0.0059,0.0660,-0.1308
9344,-0.0418,-0.9964,0.0193,0.0705,-0.0561,-0.0087
9354,-0.0458,-0.9981,0.0172,0.1010,0.0050,0.0218
9364,-0.0411,-0.9998,0.0235,0.0552,0.0202,-0.0392
9374,-0.0401,-0.9964,0.0201,0.0399,0.0355,-0.0698
9384,-0.0428,-0.9950,0.0167,0.0552,-0.0103,-0.1308
9394,-0.0438,-0.9950,0.0172,0.0247,0.0202,-0.1308
9404,-0.0470,-0.9991,0.0162,0.0094,-0.0408,-0.2072
9414,-0.0396,-1.0016,0.0203,0.0705,0.0050,-0.1766
9424,-0.0482,-0.9977,0.0237,0.0399,0.0202,-0.1766
9434,-0.0467,-1.0006,0.0235,0.1163,0.0355,-0.0392
9444,-0.0448,-0.9989,0.0230,0.0857,-0.0103,0.0066
9454,-0.0438,-0.9957,0.0210,0.0552,0.0508,-0.0698
9464,-0.0467,-0.9974,0.0213,0.0552,0.0202,-0.2377
9474,-0.0472,-0.9986,0.0208,0.0094,0.0355,-0.1766
9484,-0.0470,-0.9979,0.0213,-0.0517,0.0355,-0.1766
9494,-0.0421,-1.0016,0.0205,-0.0211,0.0508,-0.1156
9504,-0.0470,-0.9972,0.0208,-0.0364,-0.0256,-0.0850
9514,-0.0428,-0.9986,0.0215,0.0552,-0.0103,-0.0240
9524,-0.0411,-0.9989,0.0174,-0.0211,0.0050,-0.1003
9534,-0.0453,-1.0003,0.0140,-0.0517,0.1118,-0.0850
9544,-0.0450,-0.9984,0.0235,-0.0211,0.1271,-0.2530
9554,-0.0423,-0.9969,0.0167,-0.0211,0.0813,-0.3293
9564,-0.0426,-0.9974,0.0203,-0.0059,0.0355,-0.2530
9574,-0.0431,-0.9972,0.0155,0.0705,0.0355,-0.1156
9584,-0.0440,-1.0003,0.0186,0.1010,0.0508,0.1134
9594,-0.0445,-0.9969,0.0237,0.0094,0.0202,0.1440
9604,-0.0455,-0.9986,0.0261,0.0705,0.0050,0.1440
9614,-0.0426,-0.9996,0.0247,0.0247,-0.0408,-0.1003
9624,-0.0470,-0.9964,0.0205,0.0247,-0.0561,-0.1614
9634,-0.0462,-0.9986,0.0251,0.0094,0.0355,-0.2835
9644,-0.0470,-1.0011,0.0218,-0.0364,-0.0103,-0.2530
9654,-0.0440,-1.0018,0.0176,-0.0669,0.0355,-0.1919
9664,-0.0448,-1.0023,0.0227,-0.1127,0.1118,-0.1156
9674,-0.0458,-0.9940,0.0181,-0.0822,0.1118,-0.0240
9684,-0.0458,-0.9986,0.0273,-0.1127,0.0355,0.0371
9694,-0.0470,-1.0028,0.0208,-0.0517,0.0202,0.0524
9704,-0.0472,-0.9967,0.0237,-0.0975,0.0355,-0.1308
9714,-0.0423,-0.9967,0.0191,-0.0822,0.0202,-0.2682
9724,-0.0440,-0.9996,0.0191,-0.1738,-0.0103,-0.3751
9734,-0.0426,-0.9986,0.0215,-0.1433,-0.0103,-0.2530
9744,-0.0443,-0.9998,0.0184,-0.0975,-0.0408,0.0829
9754,-0.0431,-0.9986,0.0201,0.0399,0.0355,0.2356
9764,-0.0413,-0.9994,0.0155,0.0857,0.0050,0.2508
9774,-0.0460,-0.9989,0.0191,0.1163,-0.0256,0.0982
9784,-0.0440,-0.9959,0.0111,0.0552,0.0813,-0.0392
9794,-0.0411,-0.9984,0.0196,0.1010,0.0202,-0.1461
9804,-0.0470,-0.9986,0.0176,0.0552,0.0355,-0.2072
9814,-0.0443,-1.0013,0.0155,-0.0669,-0.0256,-0.2072
9824,-0.0436,-0.9967,0.0220,-0.0211,0.0050,-0.1614
9834,-0.0485,-0.9989,0.0218,-0.0517,-0.0561,-0.0087
9844,-0.0460,-1.0001,0.0193,-0.0211,-0.0561,0.2356
9854,-0.0460,-0.9972,0.0169,0.0399,-0.0561,0.0218
9864,-0.0431,-0.9952,0.0191,0.0399,-0.0256,-0.0698
9874,-0.0445,-0.9998,0.0201,0.0552,0.0508,-0.2377
9884,-0.0436,-0.9957,0.0145,0.0552,-0.0256,-0.1919
9894,-0.0458,-0.9959,0.0179,0.0552,-0.0103,-0.1003
9904,-0.0421,-0.9969,0.0121,0.0705,-0.0103,-0.0087
9914,-0.0428,-0.9977,0.0179,0.0094,-0.0256,0.0524
9924,-0.0411,-0.9994,0.0215,0.0857,0.1118,0.0982
9934,-0.0445,-1.0008,0.0155,0.0857,0.0813,-0.0087
9944,-0.0409,-0.9979,0.0218,-0.0364,0.0202,0.0371
9954,-0.0416,-0.9959,0.0210,0.0094,0.0202,0.0066
9964,-0.0460,-0.9989,0.0225,-0.0822,0.0355,0.0524
9974,-0.0475,-1.0008,0.0193,-0.0059,0.0508,-0.1156
9984,-0.0453,-0.9969,0.0203,0.0399,-0.0103,-0.2072
9994,-0.0455,-1.0013,0.0167,-0.0975,0.0202,-0.1766
10004,-0.0453,-0.9991,0.0227,-0.0822,0.0202,-0.1156
10014,-0.0443,-0.9984,0.0244,-0.0364,0.0202,-0.1003
10024,-0.0391,-0.9959,0.0210,-0.0669,-0.0408,-0.1461
10034,-0.0431,-0.9959,0.0205,0.0094,-0.0408,0.0066
10044,-0.0455,-1.0011,0.0215,0.1315,-0.0103,-0.0087
10054,-0.0433,-0.9981,0.0208,0.0552,0.0050,-0.1003
10064,-0.0421,-0.9950,0.0152,0.0857,0.0355,-0.0087
10074,-0.0423,-0.9962,0.0184,0.0705,0.0966,-0.0545
10084,-0.0399,-0.9959,0.0184,0.0247,0.0660,0.0829
10094,-0.0433,-1.0011,0.0176,0.0705,0.0050,0.0676
10104,-0.0418,-0.9977,0.0237,-0.0211,-0.0103,0.0829
10114,-0.0421,-0.9974,0.0184,0.0094,-0.0408,0.0982
10124,-0.0438,-1.0011,0.0205,0.0399,-0.0866,0.0524
10134,-0.0440,-0.9991,0.0162,0.0094,0.0050,0.0524
10144,-0.0423,-0.9974,0.0196,0.0857,-0.0256,-0.0392
10154,-0.0443,-0.9947,0.0186,0.0857,-0.0714,0.0371
10164,-0.0450,-0.9996,0.0174,0.0705,0.0355,0.0676
10174,-0.0436,-1.0008,0.0205,0.0399,0.0660,0.0066
10184,-0.0428,-0.9959,0.0179,-0.0364,0.0050,-0.0087
10194,-0.0494,-0.9974,0.0205,-0.0975,-0.0866,0.0066
10204,-0.0475,-0.9986,0.0208,-0.0975,0.0050,-0.1308
10214,-0.0440,-1.0040,0.0145,-0.0517,0.0508,-0.2682
10224,-0.0401,-0.9984,0.0210,-0.0822,-0.0103,-0.1919
10234,-0.0433,-0.9977,0.0230,-0.0822,-0.0256,-0.0240
10244,-0.0433,-0.9981,0.0133,-0.0059,-0.0714,0.1745
10254,-0.0404,-0.9986,0.0174,0.1468,-0.0561,0.2508
10264,-0.0431,-0.9972,0.0237,0.1926,0.0202,0.1745
10274,-0.0421,-0.9957,0.0169,0.0857,0.0508,0.0524
10284,-0.0396,-0.9979,0.0193,0.0399,0.0508,-0.1461
10294,-0.0448,-0.9989,0.0218,-0.0211,0.0813,-0.1919
10304,-0.0443,-0.9998,0.0235,-0.0211,-0.0256,-0.1003
10314,-0.0458,-0.9979,0.0222,-0.0059,0.0202,0.0218
10324,-0.0465,-0.9962,0.0213,-0.0364,-0.0256,0.0676
10334,-0.0465,-1.0045,0.0220,-0.0211,0.0966,0.0371
10344,-0.0445,-0.9998,0.0189,0.0705,0.0660,0.0676
10354,-0.0438,-0.9972,0.0162,0.0705,0.0050,0.0371
10364,-0.0487,-1.0011,0.0186,0.0247,-0.0561,0.0066
10374,-0.0438,-0.9972,0.0213,0.0399,-0.0408,-0.1308
10384,-0.0431,-0.9989,0.0227,-0.0517,-0.0408,-0.0545
10394,-0.0467,-0.9937,0.0181,-0.0364,-0.0561,-0.0545
10404,-0.0409,-1.0011,0.0147,-0.0364,0.0050,-0.0240
10414,-0.0450,-0.9994,0.0164,-0.0364,-0.0103,0.0524
10424,-0.0428,-1.0003,0.0239,0.0247,0.0202,-0.0545
10434,-0.0428,-0.9964,0.0230,-0.0669,0.0202,-0.1614
10444,-0.0411,-0.9998,0.0213,-0.0059,0.0660,-0.2072
10454,-0.0426,-0.9977,0.0191,-0.0975,0.0813,-0.1461
10464,-0.0416,-0.9945,0.0247,-0.0822,0.0202,-0.1156
10474,-0.0409,-0.9974,0.0227,0.0247,0.0050,-0.1308
10484,-0.0431,-0.9994,0.0172,0.0399,0.0050,-0.1156
10494,-0.0433,-0.9981,0.0239,-0.0059,0.0050,-0.0240
10504,-0.0458,-0.9950,0.0143,-0.0211,0.0660,0.0982
10514,-0.0450,-0.9991,0.0179,0.0399,0.0202,0.1745
10524,-0.0431,-0.9986,0.0143,0.0552,-0.0256,0.2356
10534,-0.0467,-0.9991,0.0205,0.1468,-0.0256,0.0982
10544,-0.0428,-0.9969,0.0201,0.0705,-0.0408,-0.1003
10554,-0.0418,-0.9989,0.0145,-0.0517,-0.0256,-0.1461
10564,-0.0421,-0.9967,0.0254,0.0399,-0.0103,-0.1766
10574,-0.0443,-1.0047,0.0218,-0.0669,-0.0408,-0.1308
10584,-0.0458,-0.9955,0.0176,-0.0211,-0.0561,-0.1919
10594,-0.0458,-0.9977,0.0198,0.0094,-0.0103,-0.2835
10604,-0.0418,-1.0020,0.0193,0.0705,0.0355,-0.2224
10614,-0.0445,-0.9991,0.0225,0.0857,-0.0408,-0.0392
10624,-0.0428,-0.9957,0.0198,0.0552,0.0508,0.0676
10634,-0.0404,-0.9977,0.0203,0.1163,0.0355,0.1287
10644,-0.0401,-0.9984,0.0235,0.1163,0.0355,0.1745
10654,-0.0480,-0.9952,0.0191,0.1315,0.0202,0.1592
10664,-0.0455,-0.9967,0.0138,0.1163,0.0508,0.0676
10674,-0.0423,-0.9959,0.0164,0.0857,0.0355,-0.0392
10684,-0.0445,-0.9950,0.0218,0.0552,-0.0561,-0.1461
10694,-0.0438,-0.9957,0.0239,0.0399,-0.0103,-0.0545
10704,-0.0460,-1.0003,0.0232,0.0705,-0.0408,0.0524
10714,-0.0458,-0.9977,0.0251,0.0552,0.0508,0.1592
10724,-0.0477,-0.9986,0.0203,0.0247,-0.0103,0.0829
10734,-0.0453,-0.9996,0.0169,0.0247,-0.0561,0.0218
10744,-0.0458,-1.0006,0.0261,0.0399,-0.0561,-0.1308
10754,-0.0431,-1.0001,0.0227,-0.0517,-0.0714,-0.1156
10764,-0.0492,-0.9950,0.0186,-0.1585,-0.0561,-0.0698
10774,-0.0406,-0.9964,0.0268,-0.1127,-0.0103,-0.0545
10784,-0.0448,-0.9937,0.0201,-0.0669,-0.0256,0.0524
10794,-0.0450,-0.9945,0.0201,0.0247,-0.0103,0.1287
10804,-0.0433,-0.9952,0.0210,-0.0822,0.0050,0.0371
10814,-0.0396,-0.9964,0.0126,-0.0364,0.0050,-0.0087
10824,-0.0394,-1.0008,0.0215,-0.0669,-0.0561,-0.0545
10834,-0.0443,-0.9937,0.0184,0.0247,0.0202,0.0066
10844,-0.0423,-0.9984,0.0174,-0.0211,0.0050,-0.0545
10854,-0.0460,-0.9945,0.0181,-0.0211,-0.0408,0.0829
10864,-0.0453,-1.0008,0.0210,0.0399,-0.0408,0.1745
10874,-0.0443,-0.9984,0.0189,0.0857,0.0355,0.1134
10884,-0.0458,-0.9972,0.0235,0.0247,0.0202,0.0371
10894,-0.0462,-0.9984,0.0181,-0.0517,0.0050,-0.0545
10904,-0.0453,-0.9986,0.0157,0.0247,0.0813,-0.2072
10914,-0.0418,-0.9955,0.0235,0.0247,0.0050,-0.1461
10924,-0.0440,-0.9972,0.0164,-0.0822,-0.0256,-0.1156
10934,-0.0440,-0.9979,0.0189,-0.0517,0.0202,-0.2072
10944,-0.0453,-0.9986,0.0179,-0.0669,0.0508,-0.3140
10954,-0.0460,-0.9989,0.0176,-0.0975,0.0966,-0.4209
10964,-0.0450,-0.9955,0.0196,-0.0669,-0.0561,-0.2988
10974,-0.0438,-0.9952,0.0118,0.0399,0.0355,-0.1614
10984,-0.0448,-0.9981,0.0184,0.0552,0.0202,0.0066
10994,-0.0394,-0.9964,0.0160,0.0857,-0.0103,0.0982
11004,-0.0428,-0.9967,0.0222,0.0552,-0.0103,0.0218
11014,-0.0389,-0.9967,0.0249,-0.0211,-0.0256,-0.0240
11024,-0.0428,-0.9996,0.0259,0.0552,-0.0561,-0.1919
11034,-0.0445,-1.0006,0.0218,-0.1280,-0.0408,-0.2988
11044,-0.0455,-1.0011,0.0176,-0.0669,-0.0408,-0.2072
11054,-0.0453,-0.9989,0.0225,-0.0517,-0.0256,-0.2530
11064,-0.0467,-1.0016,0.0235,-0.1280,-0.0408,-0.2377
11074,-0.0465,-0.9986,0.0215,-0.0364,-0.1019,-0.0850
11084,-0.0438,-1.0003,0.0208,0.0247,-0.0408,-0.0087
11094,-0.0462,-0.9998,0.0193,0.0552,-0.0103,0.0676
11104,-0.0416,-0.9964,0.0205,-0.0059,-0.0103,-0.0698
11114,-0.0455,-0.9981,0.0213,-0.0975,-0.0103,-0.1156
11124,-0.0413,-0.9955,0.0172,-0.0211,0.0508,-0.1003
11134,-0.0404,-0.9994,0.0150,-0.0211,0.0355,0.0066
11144,-0.0445,-0.9979,0.0203,0.0705,0.0202,0.1134
11154,-0.0418,-0.9981,0.0150,0.1010,0.0202,0.0829
11164,-0.0418,-0.9962,0.0203,0.0399,-0.0561,-0.1156
11174,-0.0448,-0.9984,0.0227,0.0094,-0.0256,-0.2377
11184,-0.0433,-1.0018,0.0198,-0.0211,-0.0561,-0.2530
11194,-0.0445,-1.0006,0.0201,0.0094,-0.0408,-0.0240
11204,-0.0480,-1.0006,0.0208,-0.0059,-0.0103,0.2661
11214,-0.0440,-1.0042,0.0213,0.0552,-0.0561,0.4798
11224,-0.0480,-1.0011,0.0251,0.1315,-0.0103,0.4646
11234,-0.0426,-0.9972,0.0191,0.1773,-0.0103,0.2661
11244,-0.0423,-0.9981,0.0201,0.1010,0.0508,-0.0087
11254,-0.0436,-0.9991,0.0179,0.0857,0.0813,-0.0240
11264,-0.0428,-0.9984,0.0210,0.0247,0.0355,-0.0392
11274,-0.0462,-1.0033,0.0225,0.0094,-0.0103,-0.0392
11284,-0.0462,-1.0033,0.0189,0.0399,-0.0408,-0.0850
11294,-0.0443,-0.9952,0.0239,-0.0517,-0.0256,-0.1308
11304,-0.0460,-0.9996,0.0220,-0.0364,-0.0256,-0.1766
11314,-0.0448,-1.0013,0.0133,0.0094,-0.0561,-0.1919
11324,-0.0391,-0.9952,0.0198,-0.0364,0.0355,-0.1461
11334,-0.0431,-0.9964,0.0198,-0.0517,0.0813,-0.2072
11344,-0.0443,-0.9972,0.0222,-0.0364,0.0660,-0.2072
11354,-0.0431,-0.9964,0.0184,0.0094,0.0355,-0.0698
11364,-0.0470,-0.9940,0.0220,0.1315,0.0355,-0.0698
11374,-0.0418,-0.9972,0.0249,0.1315,0.0508,-0.0240
11384,-0.0389,-0.9994,0.0104,0.1010,0.0813,-0.0698
11394,-0.0436,-0.9967,0.0172,0.1621,0.0660,0.1440
11404,-0.0418,-0.9991,0.0157,0.1621,0.0508,0.2356
11414,-0.0472,-1.0003,0.0109,0.1315,0.0050,0.3424
11424,-0.0426,-0.9994,0.0251,0.1010,-0.0256,0.3272
11434,-0.0421,-0.9986,0.0176,0.1315,0.0355,0.2203
11444,-0.0480,-0.9981,0.0193,0.0705,0.0050,0.1287
11454,-0.0465,-1.0001,0.0201,-0.0211,-0.0256,0.1134
11464,-0.0409,-0.9952,0.0205,-0.0517,-0.0866,0.2356
11474,-0.0409,-0.9952,0.0162,-0.0364,-0.0866,0.4188
11484,-0.0465,-1.0020,0.0242,-0.0364,-0.0256,0.4188
11494,-0.0467,-0.9969,0.0210,-0.0822,0.0050,0.0066
11504,-0.0450,-1.0023,0.0218,-0.0975,0.0202,-0.4515
11514,-0.0482,-0.9962,0.0191,-0.0822,0.0508,-0.5736
11524,-0.0450,-0.9998,0.0167,-0.1280,-0.0103,-0.5278
11534,-0.0455,-1.0011,0.0215,-0.0669,-0.0561,-0.2072
11544,-0.0413,-0.9969,0.0198,0.0247,-0.0256,0.1134
11554,-0.0396,-0.9972,0.0169,0.0552,-0.0256,0.1745
11564,-0.0406,-0.9981,0.0208,0.0399,0.0050,0.2050
11574,-0.0401,-1.0001,0.0164,0.0399,-0.0408,0.2203
11584,-0.0438,-0.9986,0.0189,0.1926,-0.0408,0.1898
11594,-0.0448,-0.9977,0.0157,0.2231,-0.0256,0.1592
11604,-0.0391,-0.9959,0.0205,0.1010,0.0813,0.1134
11614,-0.0438,-1.0016,0.0210,0.1163,0.0660,-0.0545
11624,-0.0428,-1.0006,0.0184,0.0857,0.0508,-0.0850
11634,-0.0448,-1.0011,0.0232,0.0857,0.0813,-0.0850
11644,-0.0470,-0.9979,0.0288,-0.0059,0.0050,0.1134
11654,-0.0460,-1.0033,0.0276,-0.1433,-0.0103,0.2050
11664,-0.0448,-1.0003,0.0196,-0.0364,0.0508,0.1745
11674,-0.0472,-1.0001,0.0160,0.0247,0.0508,0.1592
11684,-0.0453,-1.0008,0.0174,-0.0059,0.0355,0.1134
11694,-0.0472,-0.9969,0.0169,-0.1127,0.0660,0.1440
11704,-0.0467,-0.9986,0.0205,-0.0364,-0.0408,0.0982
11714,-0.0472,-0.9972,0.0186,-0.0211,-0.0408,0.0524
11724,-0.0448,-1.0001,0.0210,-0.0211,0.0813,-0.1614
11734,-0.0465,-0.9974,0.0123,-0.0669,0.0202,-0.1766
11744,-0.0401,-0.9967,0.0181,0.0705,0.0202,-0.1919
11754,-0.0492,-0.9974,0.0174,-0.0517,-0.0103,0.0218
11764,-0.0421,-1.0001,0.0176,0.0247,0.0050,0.1134
11774,-0.0453,-0.9969,0.0210,0.0247,0.0355,0.1134
11784,-0.0428,-1.0011,0.0259,0.0094,0.0813,0.1287
11794,-0.0440,-0.9986,0.0213,0.0247,0.0050,0.0829
11804,-0.0462,-0.9979,0.0205,-0.0364,0.0355,-0.0087
11814,-0.0436,-0.9964,0.0198,0.0552,0.0202,-0.0545
11824,-0.0475,-0.9977,0.0203,0.0552,0.0355,-0.0240
11834,-0.0448,-1.0016,0.0227,0.0857,0.0202,0.1592
11844,-0.0445,-1.0001,0.0152,0.0247,-0.0103,0.3272
11854,-0.0499,-0.9969,0.0184,0.0399,0.0508,0.1440
11864,-0.0460,-0.9952,0.0201,0.0094,0.0508,0.0218
11874,-0.0465,-0.9989,0.0176,-0.0059,0.0660,-0.0850
11884,-0.0453,-1.0018,0.0203,0.0247,0.0966,-0.1156
11894,-0.0418,-0.9994,0.0174,0.0094,0.0050,0.0371
11904,-0.0450,-0.9974,0.0174,-0.0059,-0.0408,0.0676
11914,-0.0453,-0.9977,0.0201,-0.0364,-0.0408,-0.0698
11924,-0.0423,-1.0001,0.0198,-0.0822,0.0202,-0.1614
11934,-0.0467,-0.9996,0.0189,0.0247,-0.0561,-0.1308
11944,-0.0453,-0.9991,0.0172,0.0094,0.0813,-0.0545
11954,-0.0433,-1.0008,0.0239,-0.0059,0.0050,0.0371
11964,-0.0443,-0.9972,0.0208,-0.0364,0.0660,0.0371
11974,-0.0448,-1.0033,0.0261,0.0094,0.0050,0.0371
11984,-0.0492,-1.0003,0.0147,0.0552,-0.0408,0.0371
11994,-0.0436,-1.0013,0.0174,0.0552,0.0355,-0.0545
12004,-0.0440,-0.9977,0.0174,-0.0669,0.0202,0.0066
12014,-0.0467,-0.9964,0.0147,-0.0059,0.0508,0.0218
12024,-0.0485,-0.9955,0.0196,-0.1127,0.0508,0.0524
12034,-0.0489,-1.0028,0.0218,-0.0211,-0.0561,-0.0545
12044,-0.0443,-0.9940,0.0167,-0.0975,-0.0561,-0.1766
12054,-0.0443,-1.0006,0.0203,-0.0517,-0.0408,-0.1308
12064,-0.0413,-0.9947,0.0198,-0.0059,0.0660,-0.1766
12074,-0.0470,-0.9994,0.0140,-0.0364,-0.0103,-0.0392
12084,-0.0462,-1.0013,0.0174,0.0247,0.0355,-0.0087
12094,-0.0433,-1.0020,0.0210,-0.0059,0.0508,0.1134
12104,-0.0448,-1.0008,0.0271,0.0399,0.0202,0.0982
12114,-0.0460,-0.9989,0.0208,0.0247,-0.0256,-0.0698
12124,-0.0445,-0.9974,0.0181,0.0247,0.0660,-0.1156
12134,-0.0436,-0.9950,0.0189,-0.0211,0.0202,-0.1003
12144,-0.0436,-0.9989,0.0196,0.0857,-0.0408,-0.0087
12154,-0.0443,-0.9991,0.0191,0.0399,-0.0408,0.2356
12164,-0.0480,-0.9998,0.0184,0.1163,-0.0561,0.1592
12174,-0.0470,-0.9974,0.0193,0.0094,0.0508,0.0524
12184,-0.0467,-1.0008,0.0152,0.0399,-0.0714,-0.1156
12194,-0.0489,-0.9972,0.0227,0.0094,-0.1324,-0.1766
12204,-0.0497,-0.9981,0.0237,-0.0059,-0.0408,-0.1766
12214,-0.0475,-0.9967,0.0220,0.0399,0.0050,-0.0087
12224,-0.0487,-0.9998,0.0225,-0.0669,-0.0561,-0.0392
12234,-0.0465,-0.9979,0.0157,-0.1280,-0.0103,-0.0698
12244,-0.0448,-0.9994,0.0215,0.0094,0.0050,-0.0392
12254,-0.0428,-0.9994,0.0201,0.0552,0.0050,-0.1003
12264,-0.0436,-0.9974,0.0213,0.1010,-0.0561,-0.0850
12274,-0.0470,-0.9957,0.0227,0.0552,-0.0256,-0.0087
12284,-0.0411,-0.9977,0.0179,0.0247,0.0050,0.0066
12294,-0.0465,-0.9986,0.0189,0.0247,-0.0103,0.0371
12304,-0.0450,-0.9950,0.0220,0.0552,0.0202,0.0218
12314,-0.0482,-0.9994,0.0135,0.0094,-0.0103,0.0066
12324,-0.0416,-0.9969,0.0160,0.0399,0.0355,0.0371
12334,-0.0465,-0.9959,0.0164,0.0094,0.0813,0.0371
12344,-0.0438,-1.0047,0.0121,-0.0059,0.0202,-0.0545
12354,-0.0489,-0.9979,0.0169,0.0094,0.0508,-0.0850
12364,-0.0480,-0.9967,0.0225,0.1621,-0.0408,-0.0850
12374,-0.0462,-0.9977,0.0220,0.1621,-0.0714,0.0218
12384,-0.0455,-1.0047,0.0230,0.0705,-0.0256,0.0371
12394,-0.0470,-0.9979,0.0189,0.0857,0.0202,0.0829
12404,-0.0428,-0.9957,0.0237,0.0857,0.0050,0.0982
12414,-0.0475,-1.0008,0.0189,0.0399,-0.0103,-0.0087
12424,-0.0475,-1.0018,0.0210,-0.0669,0.0508,-0.1919
12434,-0.0409,-0.9981,0.0261,-0.0211,0.0355,-0.1003
12444,-0.0426,-0.9986,0.0174,-0.0517,0.0202,-0.1156
12454,-0.0455,-0.9994,0.0147,0.0094,0.0355,-0.0392
12464,-0.0440,-0.9957,0.0278,-0.0211,0.0202,-0.0087
12474,-0.0418,-0.9945,0.0237,0.0399,0.0508,0.0524
12484,-0.0426,-1.0011,0.0264,0.0399,0.1271,-0.0087
12494,-0.0421,-0.9972,0.0242,0.0247,0.0508,-0.0850
12504,-0.0433,-0.9964,0.0164,-0.0211,-0.0103,-0.1766
12514,-0.0436,-1.0003,0.0186,0.0552,0.0355,-0.0698
12524,-0.0440,-1.0001,0.0176,0.0552,0.0050,-0.0087
12534,-0.0458,-1.0018,0.0152,-0.0211,0.0813,0.0066
12544,-0.0460,-0.9977,0.0184,0.0399,0.0813,0.0218
12554,-0.0467,-0.9996,0.0213,0.0399,0.0660,0.1440
12564,-0.0455,-1.0008,0.0189,0.1163,0.0508,0.1440
12574,-0.0480,-0.9981,0.0215,0.1010,0.0966,0.0829
12584,-0.0443,-1.0003,0.0222,-0.0517,0.0355,-0.0392
12594,-0.0487,-1.0008,0.0249,-0.0211,-0.0103,-0.2224
12604,-0.0436,-1.0028,0.0133,-0.1127,-0.0408,-0.3293
12614,-0.0470,-0.9964,0.0181,-0.0669,-0.0408,-0.3598
12624,-0.0472,-0.9959,0.0191,-0.0822,0.0660,-0.3293
12634,-0.0472,-0.9957,0.0176,-0.1127,0.0202,-0.1156
12644,-0.0445,-0.9972,0.0227,-0.0517,0.0660,0.0829
12654,-0.0465,-1.0050,0.0172,-0.1433,0.0355,0.1134
12664,-0.0467,-0.9972,0.0203,-0.0517,0.0508,-0.0087
12674,-0.0443,-0.9981,0.0203,-0.0669,0.0050,-0.2530
12684,-0.0431,-1.0001,0.0242,-0.0364,0.0202,-0.4667
12694,-0.0448,-1.0011,0.0225,-0.0364,0.0050,-0.3751
12704,-0.0460,-0.9989,0.0213,-0.0517,0.0355,-0.2530
12714,-0.0433,-0.9977,0.0167,0.0094,0.0050,0.0829
12724,-0.0436,-1.0016,0.0169,0.0247,0.0355,0.0982
12734,-0.0438,-0.9986,0.0191,0.0247,0.0660,0.0676
12744,-0.0475,-1.0016,0.0152,0.1010,0.0050,0.0982
12754,-0.0482,-0.9986,0.0230,0.0857,-0.0256,0.0829
12764,-0.0467,-1.0001,0.0201,0.1163,-0.0103,0.0524
12774,-0.0440,-0.9977,0.0164,0.0857,0.0355,0.1134
12784,-0.0477,-0.9950,0.0143,0.1468,0.0355,0.2356
12794,-0.0475,-1.0006,0.0242,0.1773,0.0966,0.2203
12804,-0.0467,-0.9967,0.0213,0.1315,0.0355,0.2356
12814,-0.0453,-0.9957,0.0184,0.1468,0.0508,0.0829
12824,-0.0455,-0.9981,0.0193,0.1621,0.0508,0.0676
12834,-0.0455,-0.9981,0.0220,0.1163,0.0660,0.0982
12844,-0.0485,-0.9959,0.0225,0.1315,-0.0103,0.0524
12854,-0.0475,-0.9962,0.0222,0.0857,-0.0866,-0.0087
12864,-0.0448,-0.9986,0.0222,0.1163,0.0050,-0.0392
12874,-0.0448,-1.0016,0.0184,0.0399,-0.0103,-0.0698
12884,-0.0443,-0.9981,0.0186,0.0247,0.0202,-0.0698
12894,-0.0480,-1.0025,0.0118,0.0247,-0.0103,-0.0850
12904,-0.0455,-0.9967,0.0225,0.0094,0.0355,-0.0545
12914,-0.0450,-0.9962,0.0218,0.0094,0.0202,-0.1003
12924,-0.0465,-1.0016,0.0230,0.0705,0.0355,-0.1308
12934,-0.0450,-0.9984,0.0218,0.0247,0.0202,-0.1308
12944,-0.0465,-0.9994,0.0191,0.0705,0.0355,-0.0698
12954,-0.0431,-0.9994,0.0155,0.0705,0.0813,-0.0392
12964,-0.0384,-0.9998,0.0167,0.1010,0.0202,-0.0240
12974,-0.0462,-0.9994,0.0164,0.0094,0.0355,-0.1308
12984,-0.0445,-0.9937,0.0205,0.0399,0.0202,-0.0698
12994,-0.0418,-0.9998,0.0210,0.1315,0.0660,-0.1003
13004,-0.0413,-0.9967,0.0215,0.1163,0.0202,-0.0698
13014,-0.0440,-0.9979,0.0249,0.0552,0.0050,-0.1308
13024,-0.0477,-0.9994,0.0191,-0.0364,-0.0256,-0.2224
13034,-0.0423,-0.9972,0.0244,-0.0364,-0.0103,-0.2072
13044,-0.0465,-0.9998,0.0227,-0.0059,-0.0561,-0.0392
13054,-0.0450,-1.0023,0.0181,-0.0059,-0.0103,0.1134
13064,-0.0472,-1.0023,0.0220,-0.0059,-0.0714,0.0829
13074,-0.0504,-0.9979,0.0222,0.0399,-0.0256,-0.0545
13084,-0.0467,-0.9998,0.0215,-0.0059,0.0202,-0.2835
13094,-0.0470,-0.9935,0.0198,-0.0211,0.0202,-0.3140
13104,-0.0458,-0.9981,0.0198,-0.0975,0.0202,-0.2988
13114,-0.0465,-0.9972,0.0184,-0.0211,0.0202,-0.2530
13124,-0.0460,-0.9989,0.0205,-0.0211,-0.0103,0.0066
13134,-0.0453,-0.9979,0.0203,-0.1280,-0.0866,-0.1003
13144,-0.0445,-0.9967,0.0172,0.0857,-0.0256,-0.0392
13154,-0.0426,-0.9972,0.0198,0.0705,0.0202,-0.1003
13164,-0.0431,-0.9957,0.0201,0.0094,0.0660,0.0371
13174,-0.0480,-0.9984,0.0172,-0.0364,0.0355,-0.0240
13184,-0.0492,-0.9994,0.0215,-0.0517,0.0508,-0.0698
13194,-0.0443,-0.9996,0.0232,-0.0364,-0.0408,-0.0087
13204,-0.0475,-1.0016,0.0196,-0.0975,0.0050,0.0982
13214,-0.0470,-1.0003,0.0174,-0.0211,-0.0103,0.0982
13224,-0.0507,-0.9972,0.0186,0.0094,0.0202,-0.0087
13234,-0.0458,-0.9972,0.0210,-0.0975,-0.1019,-0.0850
13244,-0.0431,-0.9989,0.0189,-0.0059,-0.0714,-0.0545
13254,-0.0470,-0.9962,0.0218,-0.0364,-0.0561,-0.1308
13264,-0.0448,-0.9977,0.0213,-0.0517,0.0050,-0.1156
13274,-0.0485,-0.9998,0.0208,-0.0517,0.0813,-0.0850
13284,-0.0462,-0.9994,0.0237,-0.0059,0.0660,-0.0698
13294,-0.0462,-0.9952,0.0242,0.1163,0.0966,-0.0240
13304,-0.0448,-0.9996,0.0143,0.0247,-0.0256,-0.0087
13314,-0.0460,-1.0016,0.0213,0.0399,0.0050,-0.0392
13324,-0.0465,-1.0001,0.0198,0.0094,0.0355,-0.0850
13334,-0.0462,-0.9998,0.0210,-0.0822,0.0355,-0.0850
13344,-0.0431,-0.9945,0.0218,-0.0517,-0.0256,-0.1614
13354,-0.0418,-0.9991,0.0193,-0.0975,0.0660,-0.1766
13364,-0.0458,-0.9969,0.0210,-0.0975,-0.0256,-0.1003
13374,-0.0465,-1.0003,0.0184,-0.0822,0.0355,0.0218
13384,-0.0462,-0.9998,0.0198,-0.0059,-0.0256,0.0524
13394,-0.0465,-1.0006,0.0191,-0.0059,0.0202,0.0218
13404,-0.0472,-1.0023,0.0181,-0.0364,-0.0256,-0.1461
13414,-0.0440,-0.9977,0.0198,-0.0517,0.0660,-0.2682
13424,-0.0497,-0.9989,0.0162,-0.0517,0.0202,-0.2377
13434,-0.0438,-0.9937,0.0155,-0.0211,-0.0256,-0.0850
13444,-0.0465,-1.0018,0.0210,0.0094,0.0508,0.0829
13454,-0.0413,-0.9967,0.0215,0.0705,-0.0256,0.1592
13464,-0.0465,-0.9989,0.0222,0.0399,0.0508,0.0829
13474,-0.0482,-1.0003,0.0176,0.0399,-0.0256,-0.0545
13484,-0.0406,-0.9974,0.0205,0.0857,-0.0408,-0.1614
13494,-0.0455,-0.9986,0.0176,0.0552,0.0050,-0.1308
13504,-0.0438,-0.9986,0.0210,-0.0669,0.0508,-0.0850
13514,-0.0411,-0.9979,0.0237,-0.0211,0.0813,-0.1003
13524,-0.0470,-1.0006,0.0152,0.0094,0.0050,0.0066
13534,-0.0448,-1.0013,0.0186,0.0094,-0.0408,0.0829
13544,-0.0436,-0.9979,0.0205,0.0094,-0.0256,0.0829
13554,-0.0418,-0.9981,0.0208,0.0094,-0.0866,0.0371
13564,-0.0394,-0.9991,0.0244,-0.0669,0.0050,-0.1003
13574,-0.0455,-0.9994,0.0259,-0.0822,0.0050,-0.2835
13584,-0.0428,-0.9962,0.0157,-0.0364,0.0966,-0.3751
13594,-0.0448,-0.9955,0.0135,-0.0517,0.0508,-0.3140
13604,-0.0450,-0.9991,0.0230,-0.0059,0.0050,-0.1614
13614,-0.0475,-0.9981,0.0162,0.0399,-0.0408,0.1745
13624,-0.0443,-1.0008,0.0179,0.0857,-0.0561,0.3119
13634,-0.0448,-0.9998,0.0196,0.1315,-0.0408,0.1592
13644,-0.0440,-1.0003,0.0164,-0.0059,-0.0561,-0.1308
13654,-0.0458,-0.9957,0.0193,0.0247,-0.0256,-0.2377
13664,-0.0453,-0.9984,0.0220,-0.0517,0.0202,-0.3140
13674,-0.0443,-0.9996,0.0191,-0.0364,0.0202,-0.1614
13684,-0.0450,-1.0016,0.0242,-0.0364,0.0508,-0.0850
13694,-0.0443,-0.9955,0.0239,-0.0517,-0.0256,0.0524
13704,-0.0472,-0.9969,0.0232,0.0705,-0.0408,0.0371
13714,-0.0440,-0.9996,0.0230,0.0552,0.0508,-0.0545
13724,-0.0460,-1.0050,0.0196,0.0247,0.0508,-0.0392
13734,-0.0455,-1.0006,0.0251,-0.0059,0.0660,-0.1156
13744,-0.0438,-0.9974,0.0191,-0.0517,0.0508,-0.2224
13754,-0.0453,-0.9994,0.0172,-0.0211,0.0355,-0.1766
13764,-0.0401,-0.9940,0.0176,-0.0517,0.0508,-0.1156
13774,-0.0440,-0.9996,0.0181,0.0857,0.0050,0.1287
13784,-0.0421,-0.9998,0.0164,0.1010,0.0355,0.1898
13794,-0.0440,-0.9974,0.0227,-0.0059,0.0508,0.0982
13804,-0.0428,-0.9955,0.0237,0.0094,0.0050,-0.0392
13814,-0.0440,-0.9994,0.0186,0.0094,0.0508,-0.1614
13824,-0.0413,-0.9986,0.0297,-0.0211,0.0355,-0.2377
13834,-0.0423,-0.9967,0.0201,0.0247,-0.0103,-0.1766
13844,-0.0458,-1.0008,0.0244,0.0094,-0.0256,-0.0392
13854,-0.0440,-0.9955,0.0254,0.0705,-0.0103,0.0676
13864,-0.0426,-1.0001,0.0186,-0.0364,0.0508,0.2050
13874,-0.0480,-0.9957,0.0208,0.0094,-0.0408,0.1745
13884,-0.0450,-1.0025,0.0235,0.0094,-0.0103,-0.1003
13894,-0.0482,-0.9977,0.0218,0.0247,0.0660,-0.1308
13904,-0.0470,-0.9957,0.0184,-0.0364,0.0050,-0.2224
13914,-0.0470,-0.9984,0.0249,-0.0517,-0.0714,-0.2072
13924,-0.0458,-0.9967,0.0164,0.0552,-0.0103,-0.1308
13934,-0.0492,-0.9981,0.0174,0.1010,0.0355,-0.0545
13944,-0.0426,-0.9969,0.0222,0.0857,0.0355,0.0066
13954,-0.0462,-1.0006,0.0147,0.0705,0.0202,0.1592
13964,-0.0440,-1.0008,0.0247,0.1315,-0.0256,0.0982
13974,-0.0440,-0.9977,0.0210,0.0552,0.0202,0.1745
13984,-0.0396,-0.9991,0.0256,-0.0211,-0.0256,0.0829
13994,-0.0423,-0.9972,0.0235,-0.0211,0.0355,-0.0698
14004,-0.0431,-0.9986,0.0198,-0.0059,0.0050,-0.0850
14014,-0.0450,-0.9972,0.0186,-0.0059,-0.0408,-0.1461
14024,-0.0462,-0.9986,0.0109,-0.0059,-0.0103,-0.1156
14034,-0.0450,-0.9957,0.0203,0.0705,0.0050,0.0066
14044,-0.0428,-1.0003,0.0198,0.1315,0.0660,-0.0240
14054,-0.0436,-0.9964,0.0196,0.1010,0.0050,-0.0087
14064,-0.0416,-1.0008,0.0201,0.0705,0.0050,0.0371
14074,-0.0428,-0.9959,0.0208,0.0857,0.0508,-0.0698
14084,-0.0487,-0.9962,0.0230,-0.0211,0.1118,-0.0850
14094,-0.0443,-0.9950,0.0198,-0.0517,0.0813,-0.2072
14104,-0.0431,-1.0001,0.0164,-0.0059,0.0660,-0.1614
14114,-0.0440,-0.9940,0.0227,0.0399,0.0050,-0.0392
14124,-0.0448,-1.0008,0.0210,0.1163,0.1118,0.0218
14134,-0.0436,-1.0011,0.0203,0.1010,0.0508,0.0676
14144,-0.0416,-0.9964,0.0208,0.1468,0.0050,-0.1919
14154,-0.0411,-0.9947,0.0247,0.0705,0.0660,-0.2072
14164,-0.0445,-0.9979,0.0254,0.0094,0.0355,-0.2530
14174,-0.0450,-1.0013,0.0235,-0.0211,-0.0866,-0.2530
14184,-0.0445,-1.0008,0.0172,-0.0517,0.0966,-0.2530
14194,-0.0472,-0.9998,0.0249,-0.0059,-0.0408,-0.1614
14204,-0.0465,-0.9979,0.0205,-0.0364,0.0050,-0.2072
14214,-0.0409,-0.9994,0.0213,-0.0822,-0.0103,-0.2835
14224,-0.0485,-0.9996,0.0208,-0.1127,-0.0256,-0.2377
14234,-0.0406,-0.9964,0.0213,-0.1127,0.0050,-0.2988
14244,-0.0448,-0.9986,0.0186,-0.0211,-0.0714,-0.2377
14254,-0.0465,-1.0003,0.0181,-0.0517,0.0355,-0.2072
14264,-0.0440,-0.9955,0.0215,-0.0975,-0.0408,-0.2072
14274,-0.0423,-0.9930,0.0162,-0.0364,-0.0408,-0.1461
14284,-0.0423,-0.9991,0.0162,0.0399,0.0050,0.1440
14294,-0.0389,-0.9998,0.0186,0.1468,-0.0256,0.3119
14304,-0.0428,-1.0011,0.0181,0.1163,-0.0103,0.3119
14314,-0.0428,-0.9964,0.0189,0.1621,0.0355,0.2508
14324,-0.0445,-0.9986,0.0186,0.1468,0.0660,0.1592
14334,-0.0421,-0.9977,0.0189,0.1468,0.0050,0.1287
14344,-0.0406,-0.9977,0.0198,0.0705,0.0050,0.1287
14354,-0.0448,-0.9994,0.0205,0.0552,-0.0103,0.2203
14364,-0.0460,-0.9991,0.0242,0.1163,0.0050,0.2203
14374,-0.0450,-0.9972,0.0140,0.1010,0.0355,0.2966
14384,-0.0475,-0.9996,0.0205,0.0247,0.0202,0.0066
14394,-0.0472,-0.9977,0.0227,-0.0211,-0.0103,-0.1308
14404,-0.0445,-0.9974,0.0186,-0.0364,0.0202,-0.2072
14414,-0.0448,-0.9981,0.0186,-0.0669,-0.0256,-0.0545
14424,-0.0448,-1.0003,0.0186,-0.0059,-0.0256,-0.0545
14434,-0.0470,-0.9981,0.0179,-0.0211,0.0660,-0.0392
14444,-0.0460,-0.9955,0.0230,-0.0669,0.0966,-0.0698
14454,-0.0418,-0.9989,0.0157,0.0094,-0.0103,-0.2072
14464,-0.0433,-0.9972,0.0167,-0.0059,0.0202,-0.3140
14474,-0.0404,-0.9986,0.0244,0.0094,0.0050,-0.2988
14484,-0.0389,-0.9996,0.0169,0.0247,0.1118,-0.2224
14494,-0.0413,-0.9986,0.0172,0.0094,0.0813,-0.1003
14504,-0.0465,-0.9974,0.0273,0.0552,0.0050,0.0829
14514,-0.0438,-0.9972,0.0198,0.1163,0.0202,0.1592
14524,-0.0492,-0.9981,0.0203,0.1163,0.0050,0.1287
14534,-0.0475,-1.0006,0.0237,0.1010,0.0355,0.0676
14544,-0.0448,-0.9974,0.0285,0.1010,-0.0103,0.0676
14554,-0.0450,-1.0008,0.0201,0.1468,-0.0408,0.0371
14564,-0.0460,-0.9972,0.0193,0.0399,0.0355,-0.0545
14574,-0.0497,-0.9991,0.0203,-0.0059,0.0508,-0.0545
14584,-0.0482,-0.9969,0.0184,0.0094,0.0508,-0.1614
14594,-0.0433,-0.9967,0.0208,-0.0822,0.0050,-0.2530
14604,-0.0448,-0.9991,0.0256,-0.1280,0.0508,-0.2835
14614,-0.0482,-0.9986,0.0208,-0.0975,0.0508,-0.2072
14624,-0.0445,-1.0006,0.0191,-0.0975,0.0508,-0.1003
14634,-0.0448,-0.9986,0.0218,-0.0364,0.0660,-0.0087
14644,-0.0406,-0.9969,0.0150,-0.0211,0.0202,0.1134
14654,-0.0448,-0.9972,0.0157,-0.0517,0.0355,0.1745
14664,-0.0416,-0.9972,0.0186,0.0094,0.1271,-0.0087
14674,-0.0416,-0.9977,0.0239,0.0399,0.0966,-0.0850
14684,-0.0413,-0.9959,0.0201,0.0705,0.0050,-0.0087
14694,-0.0467,-0.9969,0.0193,-0.0364,-0.1019,-0.0392
14704,-0.0472,-0.9945,0.0198,0.0094,-0.0256,-0.0545
14714,-0.0470,-0.9989,0.0131,0.0094,-0.0408,0.0524
14724,-0.0450,-1.0016,0.0205,-0.0364,-0.0256,0.1440
14734,-0.0440,-0.9994,0.0143,0.0094,-0.0408,0.1898
14744,-0.0489,-0.9989,0.0191,0.0094,0.0202,0.0524
14754,-0.0502,-1.0013,0.0201,0.0094,0.0355,-0.0545
14764,-0.0465,-0.9979,0.0242,0.0247,-0.0103,-0.2224
14774,-0.0499,-0.9967,0.0220,-0.0517,-0.0103,-0.2224
14784,-0.0418,-0.9969,0.0193,-0.0975,-0.0408,-0.2072
14794,-0.0404,-0.9945,0.0222,-0.0822,0.0050,-0.0850
14804,-0.0443,-0.9981,0.0176,-0.0364,0.0202,-0.1156
14814,-0.0482,-0.9991,0.0123,0.0094,-0.0103,-0.0698
14824,-0.0418,-0.9994,0.0210,-0.0211,-0.0714,-0.1461
14834,-0.0416,-1.0011,0.0239,-0.0059,0.0355,-0.1003
14844,-0.0458,-0.9955,0.0232,0.0247,0.0202,-0.1308
14854,-0.0426,-0.9974,0.0172,-0.0059,0.0813,0.0066
14864,-0.0470,-0.9974,0.0208,0.0094,-0.0103,0.0066
14874,-0.0418,-0.9984,0.0268,0.1010,-0.0103,0.1134
14884,-0.0458,-0.9981,0.0184,-0.0364,-0.0714,-0.0392
14894,-0.0433,-1.0033,0.0203,-0.0822,-0.0103,-0.0698
14904,-0.0475,-0.9959,0.0155,0.0094,-0.0103,-0.1766
14914,-0.0453,-0.9986,0.0196,0.0399,-0.0408,-0.2072
14924,-0.0455,-0.9969,0.0218,0.0705,0.0050,-0.1461
14934,-0.0465,-0.9991,0.0210,0.1163,0.0202,-0.1461
14944,-0.0504,-1.0013,0.0191,0.0247,0.0813,-0.0545
14954,-0.0465,-0.9977,0.0244,0.1010,0.0355,-0.0240
14964,-0.0453,-0.9989,0.0201,0.0094,-0.0256,-0.0392
14974,-0.0453,-1.0003,0.0143,0.1163,0.0050,-0.1614
14984,-0.0453,-0.9991,0.0167,0.0552,0.0813,-0.2377
14994,-0.0399,-1.0023,0.0215,0.0857,0.0355,-0.2224
15004,-0.0386,-0.9969,0.0184,0.1163,0.0050,-0.1766
15014,-0.0389,-0.9950,0.0235,0.1315,0.0508,-0.1003
15024,-0.0455,-0.9964,0.0213,0.1773,-0.0103,0.0676
15034,-0.0458,-0.9959,0.0244,0.1315,0.0355,-0.0087
15044,-0.0465,-0.9989,0.0256,0.0094,0.0202,-0.1156
15054,-0.0423,-0.9972,0.0210,0.0552,0.0050,-0.1766
15064,-0.0404,-1.0003,0.0140,-0.0059,0.0355,-0.0850
15074,-0.0465,-0.9967,0.0189,0.0247,-0.0866,0.0371
15084,-0.0465,-1.0001,0.0227,-0.0059,-0.1172,0.1592
15094,-0.0492,-1.0018,0.0176,0.0552,0.0202,0.1134
15104,-0.0462,-0.9989,0.0225,0.0094,0.0050,-0.0698
15114,-0.0480,-1.0016,0.0162,-0.0975,0.0202,-0.1461
15124,-0.0455,-0.9998,0.0138,-0.0517,-0.0103,-0.1461
15134,-0.0460,-1.0025,0.0191,-0.1127,-0.0103,-0.0850
15144,-0.0458,-0.9986,0.0186,-0.0211,-0.0408,-0.0240
15154,-0.0445,-1.0008,0.0176,-0.0364,-0.0561,-0.0392
15164,-0.0391,-0.9962,0.0162,-0.0211,0.0050,-0.1156
15174,-0.0460,-0.9996,0.0198,-0.0364,-0.0714,-0.0850
15184,-0.0404,-1.0001,0.0222,-0.0364,0.0355,-0.0545
15194,-0.0413,-0.9994,0.0147,0.0552,0.0355,-0.1461
15204,-0.0431,-0.9962,0.0225,-0.0211,0.0813,-0.2072
15214,-0.0438,-0.9942,0.0181,-0.0669,0.0966,-0.3293
15224,-0.0443,-0.9974,0.0189,-0.0211,0.0202,-0.2835
15234,-0.0433,-0.9979,0.0205,-0.0517,0.0050,-0.1308
15244,-0.0443,-0.9967,0.0244,-0.0059,-0.0256,0.0218
15254,-0.0453,-1.0001,0.0191,0.0247,-0.0408,0.1898
15264,-0.0418,-1.0006,0.0147,0.0552,0.0660,0.1745
15274,-0.0485,-0.9950,0.0249,-0.0059,0.0050,0.0218
15284,-0.0448,-1.0006,0.0189,0.0552,0.0508,-0.0698
15294,-0.0467,-0.9979,0.0213,0.0552,0.0050,-0.2224
15304,-0.0477,-0.9989,0.0256,-0.0364,0.0508,-0.2530
15314,-0.0404,-1.0042,0.0230,-0.0364,0.0355,-0.3293
15324,-0.0448,-1.0003,0.0203,-0.0211,-0.0103,-0.4056
15334,-0.0475,-0.9947,0.0164,-0.0669,0.0202,-0.3446
15344,-0.0450,-0.9981,0.0181,-0.0669,0.0050,-0.2224
15354,-0.0450,-0.9984,0.0191,-0.0822,-0.0256,-0.0545
15364,-0.0404,-0.9996,0.0210,0.0247,-0.0561,0.0066
15374,-0.0413,-0.9977,0.0239,0.0094,0.0050,0.1134
15384,-0.0409,-0.9955,0.0280,0.0094,-0.0714,0.1287
15394,-0.0438,-0.9957,0.0213,0.0399,0.0050,0.0066
15404,-0.0499,-0.9986,0.0186,-0.0364,0.0050,-0.0087
15414,-0.0450,-1.0045,0.0186,0.0247,0.0202,0.0829
15424,-0.0433,-0.9957,0.0227,0.0094,-0.0408,0.0371
15434,-0.0443,-0.9994,0.0167,-0.0364,0.0508,0.0524
15444,-0.0445,-0.9991,0.0196,0.1010,0.0355,0.0524
15454,-0.0462,-0.9984,0.0181,-0.0364,0.0660,0.0218
15464,-0.0472,-0.9979,0.0198,0.1163,0.0202,-0.0545
15474,-0.0411,-1.0003,0.0193,0.0552,-0.0256,0.0829
15484,-0.0465,-0.9974,0.0276,0.1163,0.0508,0.1745
15494,-0.0499,-1.0047,0.0222,0.0857,0.0660,0.0218
15504,-0.0458,-1.0011,0.0181,0.1010,0.0813,-0.1766
15514,-0.0443,-0.9994,0.0181,0.1315,-0.0256,-0.1766
15524,-0.0399,-0.9984,0.0157,0.1621,0.0966,-0.0698
15534,-0.0453,-0.9998,0.0191,0.1163,0.0813,0.0066
15544,-0.0440,-0.9972,0.0244,0.1163,0.0202,0.0829
15554,-0.0418,-0.9962,0.0208,0.0399,0.0355,-0.0240
15564,-0.0413,-0.9955,0.0273,0.1010,0.0660,-0.1766
15574,-0.0480,-0.9977,0.0193,0.0705,-0.0408,-0.2835
15584,-0.0443,-0.9981,0.0169,0.0552,-0.0408,-0.2377
15594,-0.0472,-0.9967,0.0225,0.0399,0.0202,-0.2072
15604,-0.0485,-0.9959,0.0251,0.0705,0.0355,-0.0087
15614,-0.0497,-1.0003,0.0237,0.0552,-0.0561,0.0371
15624,-0.0453,-1.0028,0.0220,0.0247,-0.0103,0.0524
15634,-0.0475,-1.0008,0.0213,0.0399,0.0355,-0.0087
15644,-0.0440,-0.9977,0.0235,-0.0211,0.0508,0.0371
15654,-0.0450,-1.0003,0.0222,-0.0669,-0.0714,-0.0698
15664,-0.0445,-0.9972,0.0193,-0.0059,-0.0561,-0.1003
15674,-0.0443,-0.9950,0.0210,0.0705,0.0508,-0.1614
15684,-0.0411,-0.9977,0.0181,-0.0364,0.0508,-0.1003
15694,-0.0413,-0.9959,0.0145,-0.1127,0.0813,-0.1614
15704,-0.0438,-1.0006,0.0225,-0.0517,0.0660,-0.2377
15714,-0.0433,-0.9972,0.0196,-0.0975,-0.0103,-0.0392
15724,-0.0362,-0.9933,0.0186,-0.0975,-0.0103,-0.1766
15734,-0.0391,-0.9998,0.0160,-0.0364,-0.0561,-0.0545
15744,-0.0450,-1.0038,0.0264,0.0247,-0.0866,-0.0392
15754,-0.0411,-1.0001,0.0181,0.0094,-0.0714,0.0371
15764,-0.0433,-0.9952,0.0213,0.1315,-0.0408,0.0524
15774,-0.0450,-0.9981,0.0278,0.1773,-0.0256,0.1287
15784,-0.0465,-1.0006,0.0244,0.0399,0.1118,0.0371
15794,-0.0462,-0.9957,0.0237,0.0094,0.0966,-0.0087
15804,-0.0453,-0.9964,0.0225,0.0552,0.0508,0.0218
15814,-0.0440,-0.9979,0.0201,-0.0517,0.0202,0.0676
15824,-0.0487,-1.0006,0.0210,-0.0517,-0.0103,0.1287
15834,-0.0482,-0.9989,0.0143,-0.0975,-0.0561,-0.0545
15844,-0.0448,-1.0003,0.0131,-0.0822,0.0355,-0.0850
15854,-0.0426,-0.9979,0.0152,-0.0364,0.0966,-0.0240
15864,-0.0421,-0.9979,0.0128,0.0247,0.0508,0.0982
15874,-0.0480,-0.9984,0.0167,0.0247,0.0355,0.2050
15884,-0.0428,-0.9967,0.0140,0.0552,0.0660,0.1134
15894,-0.0450,-1.0006,0.0198,0.0705,0.0355,-0.1156
15904,-0.0426,-0.9967,0.0201,0.0552,0.0202,-0.2682
15914,-0.0413,-0.9935,0.0230,0.0247,-0.0408,-0.1614
