timestamp_ms,ax,ay,az,gx,gy,gz
3964,-0.0428,1.0014,0.0271,-0.1364,0.0648,-0.3137
3974,-0.0507,1.0012,0.0222,-0.0601,0.0037,-0.2068
3984,-0.0489,0.9997,0.0297,-0.1059,-0.0115,-0.0083
3994,-0.0504,0.9978,0.0324,-0.0753,-0.0268,0.2665
4004,-0.0458,1.0004,0.0259,-0.0143,-0.0115,0.4192
4014,-0.0372,1.0000,0.0259,-0.0295,0.0343,0.5566
4024,-0.0386,1.0012,0.0215,0.0163,0.0495,0.5566
4034,-0.0357,1.0017,0.0268,0.0468,0.0190,0.4497
4044,-0.0423,1.0034,0.0283,0.0773,-0.0115,0.2054
4054,-0.0342,1.0012,0.0251,0.1689,0.0037,0.1902
4064,-0.0347,0.9997,0.0244,0.3521,-0.0115,0.1138
4074,-0.0335,1.0007,0.0259,0.3521,0.0037,0.0833
4084,-0.0342,0.9970,0.0230,0.3979,-0.0268,-0.2373
4094,-0.0396,1.0000,0.0278,0.2453,-0.0268,-0.4053
4104,-0.0443,0.9985,0.0198,0.2605,0.0190,-0.4053
4114,-0.0453,0.9970,0.0268,0.3521,0.0037,-0.2984
4124,-0.0485,0.9975,0.0230,0.4590,-0.0115,-0.2068
4134,-0.0460,1.0019,0.0174,0.4590,0.0495,0.0833
4144,-0.0467,1.0036,0.0247,0.3521,-0.0268,0.1749
4154,-0.0428,0.9980,0.0310,0.2758,0.0037,0.2054
4164,-0.0455,0.9992,0.0273,0.2453,-0.0421,0.2207
4174,-0.0458,0.9990,0.0339,0.2453,-0.1031,0.2665
4184,-0.0455,0.9975,0.0329,0.3369,-0.0268,0.3123
4194,-0.0445,1.0026,0.0365,0.5353,-0.1031,0.2970
4204,-0.0423,1.0017,0.0205,0.7033,-0.0726,0.4802
4214,-0.0379,1.0009,0.0213,0.6727,0.0190,0.4039
4224,-0.0413,1.0002,0.0227,0.6269,-0.0421,0.3581
4234,-0.0279,1.0012,0.0268,0.6117,-0.0726,0.2207
4244,-0.0409,0.9992,0.0256,0.6117,0.0037,0.0527
4254,-0.0438,1.0007,0.0329,0.6880,-0.1184,0.0069
4264,-0.0428,1.0012,0.0210,0.7338,-0.0115,0.0222
4274,-0.0386,1.0017,0.0268,0.8560,0.0037,0.1138
4284,-0.0401,1.0002,0.0225,1.0086,-0.0268,0.2207
4294,-0.0384,0.9992,0.0191,0.8865,-0.0115,0.3581
4304,-0.0306,0.9995,0.0203,0.7491,-0.0268,0.2665
4314,-0.0337,0.9978,0.0235,0.7949,0.0037,0.1138
4324,-0.0359,0.9982,0.0266,0.6422,0.0648,-0.0389
4334,-0.0431,0.9985,0.0237,0.6117,-0.0421,-0.1915
4344,-0.0475,0.9992,0.0314,0.6575,-0.0268,-0.2373
4354,-0.0440,1.0036,0.0276,0.7949,0.0190,-0.1610
4364,-0.0426,1.0000,0.0256,0.9781,0.0495,-0.1305
4374,-0.0428,0.9990,0.0227,1.0392,0.0953,-0.0694
4384,-0.0374,1.0021,0.0215,0.9781,0.0648,-0.0541
4394,-0.0364,1.0017,0.0056,0.8254,-0.0268,-0.1610
4404,-0.0475,0.9978,0.0191,0.7185,-0.1184,-0.1457
4414,-0.0406,1.0041,0.0222,0.5048,-0.0879,-0.0083
4424,-0.0431,1.0039,0.0157,0.4132,0.0495,0.0833
4434,-0.0465,0.9973,0.0176,0.3521,0.0037,0.1902
4444,-0.0423,0.9985,0.0213,0.2300,0.0190,0.3123
4454,-0.0404,0.9992,0.0152,0.1231,0.0801,0.4192
4464,-0.0355,1.0000,0.0205,0.0010,0.1411,0.4497
4474,-0.0394,1.0017,0.0244,-0.0906,0.1564,0.4497
4484,-0.0374,1.0021,0.0276,-0.0906,0.0495,0.2665
4494,-0.0384,0.9990,0.0266,-0.1059,-0.0115,0.2054
4504,-0.0409,1.0000,0.0283,-0.1364,-0.0421,0.2207
4514,-0.0362,1.0024,0.0254,-0.0295,0.0495,0.1749
4524,-0.0357,0.9987,0.0326,0.1079,-0.0115,-0.0541
4534,-0.0389,1.0009,0.0176,0.2147,0.0037,-0.0694
4544,-0.0382,1.0014,0.0198,0.2300,-0.0421,-0.1610
4554,-0.0443,1.0012,0.0254,0.1995,-0.0573,-0.1610
4564,-0.0423,1.0007,0.0138,0.2605,-0.1031,-0.1610
4574,-0.0411,0.9995,0.0259,0.2758,-0.0573,-0.1305
4584,-0.0448,0.9987,0.0259,0.2605,-0.0115,-0.1457
4594,-0.0475,1.0009,0.0288,0.1689,-0.0115,0.0375
4604,-0.0394,1.0019,0.0254,0.2300,-0.0879,0.1444
4614,-0.0406,1.0012,0.0208,0.2300,-0.0421,0.2207
4624,-0.0411,1.0009,0.0247,0.3216,0.0190,0.2665
4634,-0.0359,0.9992,0.0196,0.4285,0.0190,0.1596
4644,-0.0411,0.9990,0.0213,0.2911,0.0037,0.0375
4654,-0.0409,0.9995,0.0232,0.1689,0.0495,-0.0083
4664,-0.0448,1.0000,0.0172,0.2758,0.0801,-0.0236
4674,-0.0455,1.0012,0.0186,0.2758,0.0037,-0.0236
4684,-0.0369,0.9982,0.0256,0.2758,-0.0726,0.0375
4694,-0.0423,1.0002,0.0174,0.2453,-0.0115,0.0069
4704,-0.0413,1.0007,0.0135,0.1995,0.0343,-0.0389
4714,-0.0433,1.0014,0.0193,0.2147,0.0190,-0.0999
4724,-0.0355,1.0009,0.0196,0.3369,-0.0421,-0.1610
4734,-0.0436,0.9982,0.0256,0.2300,-0.0268,-0.1457
4744,-0.0448,0.9951,0.0235,0.1842,0.0495,-0.2221
4754,-0.0377,1.0017,0.0169,0.1384,-0.0115,-0.0389
4764,-0.0377,0.9963,0.0157,0.0621,0.0801,-0.1305
4774,-0.0372,0.9956,0.0261,0.0163,-0.0421,-0.1457
4784,-0.0450,1.0024,0.0220,0.1231,0.0037,-0.1305
4794,-0.0436,0.9997,0.0264,0.0621,-0.0421,-0.0694
4804,-0.0467,0.9963,0.0251,0.1231,0.0648,0.0069
4814,-0.0480,1.0046,0.0176,0.2453,0.0190,0.0680
4824,-0.0404,1.0026,0.0155,0.2453,-0.0115,0.1596
4834,-0.0391,0.9978,0.0126,0.3216,-0.0268,0.0985
4844,-0.0357,1.0000,0.0118,0.2147,-0.0268,-0.0236
4854,-0.0367,0.9987,0.0215,0.1689,-0.1184,-0.1152
4864,-0.0409,1.0026,0.0191,0.0773,-0.0573,-0.2373
4874,-0.0465,1.0026,0.0121,0.0468,0.0190,-0.2679
4884,-0.0443,0.9997,0.0247,-0.0295,0.0801,-0.1457
4894,-0.0389,0.9946,0.0184,-0.1059,0.0495,-0.1610
4904,-0.0480,1.0009,0.0215,-0.2127,0.0495,-0.1305
4914,-0.0499,1.0029,0.0276,-0.2738,0.0343,0.0222
4924,-0.0433,0.9970,0.0222,-0.1669,0.0037,0.1291
4934,-0.0386,0.9990,0.0218,-0.2127,-0.0421,0.2970
4944,-0.0413,1.0000,0.0215,-0.2433,0.0190,0.3886
4954,-0.0382,1.0031,0.0181,-0.2280,0.0037,0.4497
4964,-0.0440,1.0002,0.0247,-0.1822,-0.0115,0.4192
4974,-0.0465,1.0004,0.0273,-0.3044,-0.0268,0.3581
4984,-0.0440,0.9990,0.0268,-0.2127,0.0495,0.3428
4994,-0.0362,1.0051,0.0242,-0.1211,0.0495,0.3276
5004,-0.0377,1.0041,0.0157,-0.0295,0.0037,0.2665
5014,-0.0347,1.0026,0.0179,-0.1211,0.0343,0.1444
5024,-0.0357,0.9978,0.0208,-0.2433,0.0801,-0.0389
5034,-0.0418,1.0039,0.0319,-0.1822,0.0037,-0.1610
5044,-0.0450,1.0029,0.0314,-0.0906,0.0343,-0.1152
5054,-0.0423,1.0004,0.0239,-0.0601,0.0801,-0.1152
5064,-0.0453,0.9997,0.0271,0.0010,0.0037,0.0375
5074,-0.0396,0.9992,0.0227,0.1079,0.0037,0.0069
5084,-0.0426,1.0021,0.0264,0.2453,0.0801,0.0222
5094,-0.0406,1.0014,0.0317,0.2147,-0.0268,-0.0083
5104,-0.0440,0.9982,0.0186,0.2911,-0.0879,0.0375
5114,-0.0431,0.9995,0.0239,0.2911,0.0343,0.1138
5124,-0.0399,1.0007,0.0261,0.3827,0.0648,0.0527
5134,-0.0386,1.0026,0.0205,0.3674,0.0190,0.0527
5144,-0.0362,1.0031,0.0264,0.3979,0.0343,-0.1610
5154,-0.0372,0.9990,0.0196,0.4437,-0.0268,-0.2526
5164,-0.0399,0.9982,0.0218,0.3827,0.0190,-0.4358
5174,-0.0443,0.9987,0.0266,0.3063,0.0648,-0.4816
5184,-0.0458,0.9992,0.0210,0.4590,0.0953,-0.4511
5194,-0.0440,1.0029,0.0213,0.3216,-0.0573,-0.2984
5204,-0.0485,0.9980,0.0169,0.2758,0.0801,-0.1763
5214,-0.0460,1.0017,0.0164,0.2147,-0.0115,0.0527
5224,-0.0492,1.0026,0.0239,0.2300,-0.0573,0.2512
5234,-0.0524,1.0051,0.0210,0.2147,-0.0115,0.3581
5244,-0.0460,0.9997,0.0174,0.1842,-0.0268,0.4955
5254,-0.0453,1.0007,0.0244,0.0926,-0.0421,0.6024
5264,-0.0409,0.9968,0.0266,0.0468,-0.0115,0.6329
5274,-0.0355,0.9987,0.0225,-0.0295,0.0190,0.6329
5284,-0.0362,1.0017,0.0254,-0.0753,-0.0115,0.6482
5294,-0.0411,1.0012,0.0174,-0.1975,0.0495,0.4344
5304,-0.0318,1.0068,0.0145,-0.2280,0.0953,0.3276
5314,-0.0409,1.0029,0.0215,-0.1822,0.0801,0.2360
5324,-0.0355,0.9992,0.0176,-0.1975,-0.0421,0.2360
5334,-0.0389,1.0046,0.0157,-0.1975,-0.1031,0.1291
5344,-0.0394,1.0000,0.0201,-0.3044,-0.0726,0.0985
5354,-0.0487,1.0012,0.0264,-0.2891,-0.0115,0.0069
5364,-0.0374,1.0017,0.0244,-0.3349,0.0343,0.0680
5374,-0.0391,1.0031,0.0230,-0.2891,0.0343,0.1291
5384,-0.0359,0.9992,0.0280,-0.1975,0.0343,0.0527
5394,-0.0401,0.9982,0.0259,-0.2585,0.0190,-0.0541
5404,-0.0431,1.0007,0.0167,-0.3654,0.0190,-0.0694
5414,-0.0401,1.0012,0.0191,-0.2891,0.0495,-0.1457
5424,-0.0406,0.9982,0.0225,-0.3654,-0.0115,-0.1152
5434,-0.0431,0.9995,0.0227,-0.2738,0.0801,-0.0694
5444,-0.0401,1.0004,0.0259,-0.2891,0.0495,-0.0236
5454,-0.0337,1.0031,0.0264,-0.1975,0.1564,-0.2831
5464,-0.0377,0.9995,0.0276,-0.2127,0.1106,-0.4205
5474,-0.0350,1.0048,0.0300,-0.2433,0.0801,-0.5121
5484,-0.0438,1.0043,0.0235,-0.1669,-0.0573,-0.6190
5494,-0.0428,1.0002,0.0256,-0.1364,-0.1184,-0.5427
5504,-0.0460,0.9995,0.0222,-0.0753,-0.1337,-0.4663
5514,-0.0477,1.0000,0.0218,-0.1975,-0.1184,-0.2984
5524,-0.0364,0.9982,0.0237,-0.3960,-0.0573,-0.1763
5534,-0.0384,1.0017,0.0152,-0.3807,0.0343,-0.0999
5544,-0.0413,1.0014,0.0213,-0.4418,0.1106,-0.0847
5554,-0.0465,0.9980,0.0184,-0.6708,0.0495,-0.0236
5564,-0.0470,0.9975,0.0210,-0.7471,0.0648,-0.0389
5574,-0.0485,1.0029,0.0411,-0.7166,0.0190,0.1444
5584,-0.0472,1.0021,0.0191,-0.7013,-0.0268,0.1902
5594,-0.0409,1.0009,0.0331,-0.8234,0.0190,0.2207
5604,-0.0369,0.9978,0.0215,-0.7471,0.0343,0.2512
5614,-0.0379,1.0029,0.0225,-0.8234,0.0495,0.0527
5624,-0.0445,0.9982,0.0290,-0.7929,0.0801,-0.0847
5634,-0.0438,0.9973,0.0293,-0.6860,0.0953,-0.0694
5644,-0.0475,0.9968,0.0372,-0.5944,0.0037,0.0375
5654,-0.0367,0.9995,0.0259,-0.6097,0.0495,0.1596
5664,-0.0411,0.9982,0.0278,-0.6555,-0.0115,0.1291
5674,-0.0389,0.9995,0.0285,-0.6402,-0.0268,0.1138
5684,-0.0413,1.0029,0.0259,-0.5792,0.0343,0.1902
5694,-0.0347,0.9995,0.0341,-0.5181,0.0037,0.1902
5704,-0.0340,1.0000,0.0346,-0.4265,-0.0268,0.1138
5714,-0.0342,1.0000,0.0256,-0.2891,0.0648,-0.0847
5724,-0.0369,0.9970,0.0358,-0.3196,0.0190,-0.2373
5734,-0.0413,1.0026,0.0348,-0.2738,0.0037,-0.3900
5744,-0.0482,0.9987,0.0290,-0.2585,-0.0726,-0.3595
5754,-0.0450,1.0002,0.0380,0.0010,-0.0573,-0.2831
5764,-0.0485,0.9992,0.0372,0.0773,-0.1031,-0.1763
5774,-0.0448,0.9992,0.0293,0.2300,-0.0115,-0.0541
5784,-0.0428,0.9995,0.0174,0.2758,0.0037,-0.0083
5794,-0.0409,0.9995,0.0256,0.2758,0.0343,0.0833
5804,-0.0421,1.0014,0.0297,0.3369,0.0037,0.0527
5814,-0.0421,1.0012,0.0266,0.3063,0.0648,-0.0083
5824,-0.0352,0.9978,0.0249,0.3674,0.0190,0.0375
5834,-0.0482,1.0017,0.0264,0.3674,-0.0268,0.1596
5844,-0.0450,1.0000,0.0295,0.3521,-0.0115,0.1749
5854,-0.0462,0.9987,0.0271,0.2911,-0.0115,0.2512
5864,-0.0443,1.0007,0.0271,0.3521,-0.0573,0.3123
5874,-0.0428,1.0024,0.0271,0.4743,-0.0573,0.3734
5884,-0.0428,1.0034,0.0264,0.4590,0.0801,0.4650
5894,-0.0438,1.0000,0.0205,0.4895,0.0801,0.4802
5904,-0.0401,0.9965,0.0331,0.4132,0.0953,0.4344
5914,-0.0347,1.0019,0.0205,0.3521,0.0190,0.3734
5924,-0.0433,1.0048,0.0189,0.1842,0.0190,0.1138
5934,-0.0423,0.9992,0.0244,0.1995,0.1106,0.0833
5944,-0.0436,1.0007,0.0174,0.0621,-0.0268,0.0375
5954,-0.0504,0.9997,0.0331,0.1231,-0.0573,0.1902
5964,-0.0411,1.0004,0.0314,0.2605,0.0495,0.4344
5974,-0.0333,0.9970,0.0271,0.3216,-0.0421,0.4039
5984,-0.0350,1.0007,0.0244,0.3063,0.0037,0.2207
5994,-0.0374,1.0007,0.0210,0.2758,-0.0421,0.0527
6004,-0.0384,1.0014,0.0249,0.1231,0.0190,-0.0389
6014,-0.0440,1.0061,0.0290,0.0621,0.0037,-0.0083
6024,-0.0359,1.0014,0.0285,0.0621,-0.0115,-0.0236
6034,-0.0409,0.9963,0.0288,0.0926,-0.1031,-0.0847
6044,-0.0431,0.9982,0.0319,0.0773,-0.1031,-0.0847
6054,-0.0374,1.0004,0.0295,0.0621,-0.0115,-0.0389
6064,-0.0470,1.0002,0.0261,0.1842,0.0037,0.0527
6074,-0.0352,1.0002,0.0329,0.1384,0.0801,0.0375
6084,-0.0433,0.9990,0.0205,0.2300,0.0343,0.0222
6094,-0.0406,1.0026,0.0375,0.2147,0.0648,-0.0083
6104,-0.0394,0.9990,0.0353,0.1231,0.0037,0.0680
6114,-0.0379,1.0041,0.0205,0.1995,0.0190,0.0833
6124,-0.0453,1.0014,0.0256,0.3216,-0.0573,0.0527
6134,-0.0465,1.0009,0.0285,0.2911,-0.0421,0.1138
6144,-0.0475,0.9980,0.0288,0.3063,0.0037,0.0985
6154,-0.0416,1.0039,0.0268,0.3521,-0.0115,0.1749
6164,-0.0372,1.0004,0.0196,0.3063,-0.0421,0.2360
6174,-0.0377,1.0012,0.0273,0.2911,0.0190,0.2665
6184,-0.0377,0.9968,0.0264,0.3063,0.0190,0.2054
6194,-0.0426,0.9990,0.0251,0.2911,0.0190,0.1291
6204,-0.0362,0.9990,0.0285,0.3063,0.0495,0.0985
6214,-0.0384,0.9965,0.0222,0.2147,0.0037,0.0069
6224,-0.0485,0.9968,0.0210,0.2453,0.0190,-0.0236
6234,-0.0458,0.9965,0.0254,0.1689,0.0037,-0.0389
6244,-0.0458,1.0012,0.0312,0.1079,-0.0268,0.1138
6254,-0.0448,1.0051,0.0264,0.0010,0.0648,0.0985
6264,-0.0394,1.0012,0.0220,-0.0143,0.0495,0.1596
6274,-0.0372,1.0024,0.0283,-0.0753,0.0190,0.1444
6284,-0.0448,0.9992,0.0268,-0.1364,0.0801,0.0680
6294,-0.0433,0.9982,0.0370,-0.1059,0.0495,0.0222
6304,-0.0428,1.0019,0.0290,-0.0295,0.1106,0.0833
6314,-0.0367,0.9990,0.0312,0.1384,0.0801,0.1596
6324,-0.0325,1.0043,0.0220,0.1537,0.0648,0.0222
6334,-0.0306,1.0041,0.0242,0.1231,-0.0268,-0.1915
6344,-0.0374,1.0012,0.0244,0.0773,-0.0115,-0.3595
6354,-0.0394,1.0012,0.0254,0.0010,-0.0573,-0.3442
6364,-0.0413,1.0024,0.0271,0.0315,0.0037,-0.3747
6374,-0.0433,1.0031,0.0280,-0.0906,0.0190,-0.4358
6384,-0.0470,0.9956,0.0268,-0.0601,0.0343,-0.2526
6394,-0.0482,0.9968,0.0266,-0.0601,0.1106,-0.1763
6404,-0.0409,1.0007,0.0300,-0.0448,0.0190,0.0375
6414,-0.0450,1.0007,0.0317,0.0010,-0.0115,0.1138
6424,-0.0450,0.9958,0.0353,0.0926,-0.0115,0.2054
6434,-0.0445,1.0000,0.0297,0.1995,-0.0726,0.1138
6444,-0.0413,0.9985,0.0305,0.2300,0.0190,0.1291
6454,-0.0384,1.0039,0.0290,0.1842,0.0648,0.0833
6464,-0.0426,0.9970,0.0266,0.1384,-0.0115,0.0375
6474,-0.0355,1.0014,0.0285,0.1384,0.0343,0.0680
6484,-0.0333,1.0031,0.0254,0.2453,0.0190,-0.0389
6494,-0.0404,0.9970,0.0237,0.2758,0.0037,-0.2221
6504,-0.0320,1.0012,0.0242,0.2300,0.0343,-0.2679
6514,-0.0377,1.0009,0.0230,0.1842,0.0037,-0.3747
6524,-0.0362,1.0004,0.0273,0.0621,0.0495,-0.4969
6534,-0.0409,0.9992,0.0288,0.0773,0.0190,-0.5121
6544,-0.0453,0.9953,0.0266,0.0773,-0.0573,-0.6037
6554,-0.0514,1.0014,0.0297,0.1384,-0.0421,-0.4205
6564,-0.0524,1.0041,0.0218,0.0468,-0.0115,-0.1610
6574,-0.0494,1.0024,0.0247,-0.0753,0.0953,0.0375
6584,-0.0460,1.0004,0.0230,-0.1059,0.0801,0.2360
6594,-0.0475,1.0024,0.0268,-0.0601,-0.0268,0.3734
6604,-0.0399,1.0009,0.0247,-0.0753,0.0648,0.4955
6614,-0.0382,0.9970,0.0365,-0.3196,0.0343,0.5413
6624,-0.0406,0.9997,0.0368,-0.3349,0.0495,0.5108
6634,-0.0382,1.0024,0.0312,-0.0601,-0.0268,0.3734
6644,-0.0409,0.9980,0.0297,-0.0295,0.0190,0.3276
6654,-0.0394,0.9941,0.0283,0.0926,0.0037,0.2970
6664,-0.0369,1.0007,0.0392,0.2147,0.0343,0.3276
6674,-0.0357,1.0004,0.0280,0.3827,0.0343,0.2054
6684,-0.0303,1.0014,0.0271,0.4895,0.0343,0.2207
6694,-0.0347,1.0000,0.0176,0.6727,0.0495,0.1291
6704,-0.0337,1.0012,0.0264,0.7033,-0.0879,0.0680
6714,-0.0362,0.9982,0.0295,0.6727,-0.0421,0.0069
6724,-0.0357,0.9963,0.0348,0.6880,-0.0421,-0.0999
6734,-0.0369,0.9982,0.0278,0.7338,-0.0421,-0.2373
6744,-0.0396,1.0029,0.0235,0.7338,0.0037,-0.2373
6754,-0.0374,1.0034,0.0138,0.7033,0.0495,-0.2068
6764,-0.0367,1.0002,0.0237,0.5201,0.0495,-0.2068
6774,-0.0411,1.0007,0.0181,0.5048,0.0648,-0.3595
6784,-0.0379,1.0014,0.0181,0.3674,0.0037,-0.2984
6794,-0.0438,0.9997,0.0254,0.3674,0.0190,-0.3595
6804,-0.0460,0.9987,0.0288,0.3674,0.0037,-0.3900
6814,-0.0423,0.9992,0.0290,0.3521,-0.0726,-0.4358
6824,-0.0502,1.0043,0.0341,0.3521,-0.1031,-0.2526
6834,-0.0465,1.0019,0.0222,0.3827,-0.0268,-0.1457
6844,-0.0487,0.9980,0.0290,0.3369,-0.0573,-0.0389
6854,-0.0391,0.9995,0.0343,0.3674,-0.0726,0.1444
6864,-0.0440,1.0024,0.0126,0.3521,-0.0115,0.1596
6874,-0.0421,0.9973,0.0247,0.2453,-0.0421,0.3428
6884,-0.0413,0.9953,0.0215,0.2453,-0.0573,0.3276
6894,-0.0386,1.0002,0.0249,0.1689,-0.0573,0.4497
6904,-0.0438,0.9960,0.0297,0.1842,-0.0879,0.5108
6914,-0.0372,1.0036,0.0227,0.1689,0.0190,0.5108
6924,-0.0310,1.0000,0.0227,0.0621,-0.0268,0.4497
6934,-0.0367,1.0024,0.0307,0.0468,-0.0421,0.3276
6944,-0.0391,1.0004,0.0297,0.1231,0.0190,0.1749
6954,-0.0426,1.0026,0.0237,0.1537,0.0343,0.1596
6964,-0.0374,0.9975,0.0268,0.2300,-0.0268,0.1444
6974,-0.0436,0.9995,0.0251,0.1995,-0.0726,-0.0083
6984,-0.0416,0.9973,0.0297,0.2911,-0.0421,0.0222
6994,-0.0455,0.9985,0.0370,0.3521,-0.0421,0.0985
7004,-0.0406,0.9995,0.0247,0.4132,-0.0268,0.2207
7014,-0.0364,0.9970,0.0249,0.4437,-0.0268,0.1749
7024,-0.0313,1.0000,0.0244,0.4132,0.0190,0.0680
7034,-0.0347,0.9963,0.0235,0.3827,-0.0421,-0.0847
7044,-0.0406,1.0012,0.0285,0.3979,-0.0268,-0.0847
7054,-0.0409,0.9970,0.0285,0.4132,0.0037,-0.1152
7064,-0.0477,0.9997,0.0295,0.4437,0.0037,-0.0694
7074,-0.0426,1.0031,0.0302,0.5659,0.0037,-0.0083
7084,-0.0386,1.0026,0.0295,0.4590,-0.0268,-0.0236
7094,-0.0411,0.9978,0.0244,0.4590,0.0037,0.0222
7104,-0.0384,0.9980,0.0213,0.3216,0.0495,-0.0541
7114,-0.0440,0.9990,0.0222,0.2453,0.0190,-0.0083
7124,-0.0384,0.9992,0.0249,0.1384,0.0037,-0.1457
7134,-0.0389,1.0017,0.0225,0.1231,-0.0879,-0.1152
7144,-0.0443,0.9992,0.0326,0.1231,-0.1031,-0.1305
7154,-0.0453,0.9980,0.0307,0.1689,-0.0879,-0.1152
7164,-0.0443,1.0041,0.0329,0.1995,0.0495,-0.1305
7174,-0.0411,0.9985,0.0218,0.2605,0.0495,0.0833
7184,-0.0401,1.0000,0.0220,0.2453,0.0343,0.1596
7194,-0.0445,1.0000,0.0295,0.1689,0.0648,0.1291
7204,-0.0440,0.9936,0.0210,0.1384,0.0648,0.1444
7214,-0.0411,0.9975,0.0232,0.0621,0.0495,0.2207
7224,-0.0416,1.0024,0.0278,0.0926,0.0037,0.2665
7234,-0.0369,1.0009,0.0215,0.1537,0.0037,0.1749
7244,-0.0428,0.9985,0.0251,0.1537,-0.0573,0.2665
7254,-0.0345,0.9980,0.0283,0.1689,0.0037,0.2207
7264,-0.0386,0.9997,0.0235,0.1842,0.0495,0.1749
7274,-0.0436,1.0029,0.0196,0.1995,-0.0115,0.0527
7284,-0.0399,0.9970,0.0251,0.2605,-0.0573,0.0833
7294,-0.0377,0.9997,0.0213,0.2911,-0.0573,0.1291
7304,-0.0382,1.0017,0.0264,0.2758,0.0037,0.0069
7314,-0.0399,1.0012,0.0210,0.3521,-0.0268,-0.0389
7324,-0.0382,1.0043,0.0254,0.3827,0.0037,-0.0999
7334,-0.0389,0.9960,0.0208,0.2453,0.0953,-0.1457
7344,-0.0431,0.9970,0.0280,0.1537,0.0495,-0.2068
7354,-0.0409,1.0031,0.0203,0.1995,0.0953,-0.1915
7364,-0.0440,1.0000,0.0186,0.2605,-0.0268,-0.1457
7374,-0.0433,0.9958,0.0237,0.3369,-0.0115,-0.0694
7384,-0.0418,0.9997,0.0259,0.4285,-0.0726,-0.0389
7394,-0.0396,0.9985,0.0285,0.4590,0.0801,-0.0389
7404,-0.0391,1.0026,0.0186,0.5201,0.0190,-0.1610
7414,-0.0359,1.0004,0.0283,0.4590,0.0343,-0.1763
7424,-0.0391,0.9980,0.0208,0.3827,-0.0115,-0.2831
7434,-0.0416,1.0000,0.0193,0.3216,0.0190,-0.3289
7444,-0.0460,1.0021,0.0261,0.3063,0.0037,-0.2526
7454,-0.0460,0.9995,0.0230,0.3369,0.0953,-0.1610
7464,-0.0418,1.0009,0.0201,0.3827,0.0648,-0.0083
7474,-0.0497,0.9951,0.0314,0.3063,0.0343,0.0985
7484,-0.0411,0.9992,0.0235,0.3674,0.0037,0.2207
7494,-0.0411,0.9995,0.0288,0.3827,-0.0115,0.3123
7504,-0.0440,1.0048,0.0334,0.4590,-0.0115,0.3123
7514,-0.0443,1.0019,0.0341,0.5506,0.0190,0.2970
7524,-0.0467,0.9973,0.0326,0.7491,0.0495,0.3276
7534,-0.0323,0.9975,0.0329,0.9170,0.0037,0.3123
7544,-0.0386,0.9992,0.0249,0.9323,-0.0115,0.3123
7554,-0.0389,0.9997,0.0232,0.8865,0.0343,0.2360
7564,-0.0350,1.0041,0.0208,0.8254,0.0801,0.1444
7574,-0.0369,0.9978,0.0218,0.8712,0.0190,0.1138
7584,-0.0384,1.0024,0.0164,0.9018,0.0037,-0.1152
7594,-0.0389,1.0036,0.0155,0.8712,-0.0421,-0.1152
7604,-0.0431,1.0034,0.0302,0.8712,-0.0268,-0.0847
7614,-0.0487,1.0058,0.0220,0.9628,0.0190,0.0833
7624,-0.0445,1.0009,0.0143,0.9628,0.0648,0.1291
7634,-0.0382,0.9987,0.0264,0.8560,0.0648,0.3276
7644,-0.0379,0.9997,0.0196,0.8865,0.0953,0.4039
7654,-0.0362,1.0017,0.0176,0.7644,0.1106,0.3428
7664,-0.0345,0.9970,0.0133,0.6117,0.0801,0.2054
7674,-0.0362,1.0000,0.0181,0.3979,0.0495,0.0527
7684,-0.0352,0.9992,0.0273,0.2758,-0.0421,-0.1457
7694,-0.0379,1.0036,0.0220,0.2758,-0.1031,-0.2679
7704,-0.0413,1.0017,0.0295,0.3827,-0.1031,-0.1915
7714,-0.0409,1.0034,0.0205,0.4285,0.0190,-0.1915
7724,-0.0396,1.0029,0.0203,0.4132,0.0037,-0.1305
7734,-0.0477,0.9956,0.0237,0.1842,-0.0115,-0.0541
7744,-0.0428,1.0002,0.0220,0.1537,0.0343,-0.0541
7754,-0.0428,0.9960,0.0288,0.0926,0.0037,0.0222
7764,-0.0440,0.9992,0.0256,0.2147,0.0648,0.0833
7774,-0.0448,0.9995,0.0314,0.1842,0.0495,0.0833
7784,-0.0453,0.9990,0.0186,0.1842,0.0343,0.1444
7794,-0.0382,1.0026,0.0164,0.1995,-0.0268,0.1291
7804,-0.0399,1.0009,0.0172,0.1995,-0.0268,0.1902
7814,-0.0423,0.9995,0.0230,0.1689,0.0801,0.1749
7824,-0.0406,1.0012,0.0220,0.1384,0.0495,0.3276
7834,-0.0377,1.0009,0.0203,0.1537,0.1106,0.2512
7844,-0.0362,0.9970,0.0176,0.1842,0.0343,0.2970
7854,-0.0401,1.0012,0.0312,0.1537,-0.0421,0.3428
7864,-0.0357,1.0014,0.0297,0.1995,-0.1031,0.2512
7874,-0.0345,1.0000,0.0254,0.2758,-0.0726,0.0985
7884,-0.0382,1.0024,0.0176,0.2911,-0.0268,-0.0694
7894,-0.0426,0.9990,0.0247,0.3063,-0.0573,-0.0999
7904,-0.0423,1.0041,0.0203,0.3216,-0.0573,-0.0847
7914,-0.0372,1.0029,0.0191,0.3674,-0.0726,0.0069
7924,-0.0418,1.0034,0.0181,0.3369,0.0190,0.0680
7934,-0.0352,1.0029,0.0215,0.2605,0.0343,-0.0083
7944,-0.0347,1.0019,0.0283,0.1689,-0.0268,-0.0541
7954,-0.0382,0.9978,0.0179,0.1079,0.0648,-0.1457
7964,-0.0382,0.9997,0.0218,0.0468,-0.0115,-0.2373
7974,-0.0399,1.0021,0.0222,0.0621,-0.0115,-0.3137
7984,-0.0416,1.0002,0.0174,0.0010,-0.0115,-0.2831
7994,-0.0428,1.0007,0.0242,-0.1059,0.0343,-0.2831
8004,-0.0450,1.0036,0.0203,-0.1822,-0.0421,-0.2373
8014,-0.0455,1.0021,0.0268,-0.0906,-0.0573,-0.1152
8024,-0.0440,1.0041,0.0271,-0.0295,-0.0115,-0.0541
8034,-0.0404,0.9970,0.0264,0.1079,-0.0421,-0.0541
8044,-0.0436,1.0024,0.0189,0.1537,-0.0573,-0.0236
8054,-0.0416,1.0031,0.0268,0.1842,-0.0421,0.0680
8064,-0.0480,0.9995,0.0254,0.1231,-0.0268,0.1596
8074,-0.0472,0.9973,0.0227,0.2758,-0.0421,0.2818
8084,-0.0458,0.9990,0.0276,0.2453,-0.0573,0.4039
8094,-0.0374,0.9990,0.0213,0.3674,0.0190,0.4497
8104,-0.0399,1.0026,0.0215,0.2911,0.0495,0.3428
8114,-0.0335,1.0002,0.0203,0.1079,0.0343,0.2818
8124,-0.0394,0.9990,0.0179,0.0315,-0.0115,0.1138
8134,-0.0374,0.9997,0.0210,-0.0601,0.0801,0.0833
8144,-0.0367,1.0012,0.0235,-0.0448,-0.0115,-0.0999
8154,-0.0355,1.0000,0.0251,-0.1364,0.0037,-0.1457
8164,-0.0458,1.0046,0.0230,0.0010,-0.0115,-0.1152
8174,-0.0450,0.9985,0.0280,0.1689,-0.0115,-0.0541
8184,-0.0458,0.9982,0.0251,0.1842,-0.0421,-0.0389
8194,-0.0386,0.9990,0.0251,0.1537,-0.0421,0.0375
8204,-0.0396,1.0002,0.0235,0.1689,-0.0115,-0.0541
8214,-0.0352,1.0019,0.0280,0.1537,-0.0115,-0.2679
8224,-0.0404,0.9990,0.0157,0.1689,-0.0115,-0.4053
8234,-0.0443,0.9997,0.0210,0.0926,0.0037,-0.2984
8244,-0.0458,1.0046,0.0193,0.1689,-0.0115,-0.2373
8254,-0.0445,1.0024,0.0235,0.1995,0.0037,-0.0847
8264,-0.0386,1.0056,0.0222,0.2605,0.0648,0.0985
8274,-0.0374,1.0002,0.0232,0.1689,-0.0421,0.1596
8284,-0.0352,1.0019,0.0285,0.1537,0.1106,-0.0083
8294,-0.0418,1.0034,0.0237,0.0773,-0.0268,-0.1305
8304,-0.0379,1.0021,0.0160,0.0773,-0.0115,-0.3137
8314,-0.0431,0.9973,0.0092,-0.0753,0.0495,-0.2526
8324,-0.0499,1.0021,0.0259,-0.1364,0.0190,-0.1457
8334,-0.0485,1.0041,0.0237,-0.1822,0.0495,-0.1305
8344,-0.0465,1.0004,0.0145,-0.1517,0.0495,0.0527
8354,-0.0492,1.0014,0.0256,-0.1211,0.0343,0.2207
8364,-0.0443,0.9992,0.0244,-0.1822,-0.0115,0.3581
8374,-0.0404,1.0041,0.0276,-0.0601,0.0495,0.4802
8384,-0.0443,1.0000,0.0290,-0.0906,0.0495,0.4344
8394,-0.0413,0.9995,0.0288,-0.0601,0.0037,0.4344
8404,-0.0355,0.9978,0.0295,-0.0295,0.0495,0.3581
8414,-0.0364,0.9997,0.0276,-0.0753,0.0495,0.2818
8424,-0.0440,0.9980,0.0297,0.1231,-0.0268,0.2665
8434,-0.0411,1.0000,0.0251,0.2911,-0.1337,0.2360
8444,-0.0406,0.9992,0.0191,0.4743,-0.0421,0.2665
8454,-0.0399,0.9982,0.0300,0.5964,-0.0421,0.2512
8464,-0.0337,1.0007,0.0230,0.7491,0.0037,0.3123
8474,-0.0325,0.9968,0.0203,0.9018,0.0190,0.2207
8484,-0.0306,0.9995,0.0227,0.8254,-0.0268,0.1291
8494,-0.0330,1.0002,0.0222,0.7644,-0.0879,-0.1152
8504,-0.0337,0.9982,0.0201,0.6880,-0.0879,-0.3442
8514,-0.0453,0.9973,0.0271,0.7338,-0.0879,-0.4816
8524,-0.0450,0.9985,0.0256,0.7796,0.0037,-0.5121
8534,-0.0477,0.9975,0.0215,0.8712,-0.0421,-0.3595
8544,-0.0401,1.0026,0.0109,0.8560,-0.0268,-0.2831
8554,-0.0418,0.9997,0.0138,0.7185,0.0343,-0.2984
8564,-0.0401,1.0009,0.0104,0.5964,0.0495,-0.2373
8574,-0.0428,1.0041,0.0189,0.3521,0.0190,-0.2831
8584,-0.0443,1.0012,0.0201,0.3063,0.0037,-0.2679
8594,-0.0445,1.0024,0.0145,0.3521,-0.0268,-0.1457
8604,-0.0465,1.0012,0.0210,0.3979,-0.0573,-0.0083
8614,-0.0470,0.9992,0.0208,0.3979,-0.0268,0.1138
8624,-0.0404,1.0029,0.0244,0.4437,0.0343,0.2665
8634,-0.0458,1.0039,0.0133,0.3063,0.0037,0.2665
8644,-0.0340,0.9990,0.0160,0.2911,0.0343,0.3276
8654,-0.0333,1.0034,0.0179,0.2453,0.0190,0.3123
8664,-0.0369,1.0017,0.0172,-0.0906,-0.0115,0.1291
8674,-0.0382,1.0002,0.0189,-0.1975,-0.0421,0.0069
8684,-0.0377,1.0012,0.0232,-0.4112,0.0190,-0.0541
8694,-0.0406,1.0009,0.0249,-0.4876,-0.0115,-0.0389
8704,-0.0406,1.0048,0.0278,-0.4418,-0.0115,-0.0389
8714,-0.0413,1.0034,0.0300,-0.3502,0.0190,-0.0083
8724,-0.0404,0.9978,0.0261,-0.2585,-0.0115,-0.0694
8734,-0.0396,0.9968,0.0191,-0.2433,-0.0573,0.0222
8744,-0.0391,0.9968,0.0213,-0.1517,-0.0573,0.0222
8754,-0.0413,1.0017,0.0244,-0.1364,-0.0115,0.0069
8764,-0.0448,1.0014,0.0210,-0.1211,0.0801,0.0222
8774,-0.0396,1.0007,0.0249,0.0010,0.1411,0.0527
8784,-0.0406,0.9982,0.0215,-0.0906,0.0343,0.0833
8794,-0.0377,1.0007,0.0242,0.0010,0.0343,0.0680
8804,-0.0357,0.9978,0.0140,-0.0906,-0.0115,-0.0389
8814,-0.0303,1.0029,0.0210,-0.2127,0.0190,-0.1305
8824,-0.0453,1.0043,0.0264,-0.4265,0.0343,-0.1610
8834,-0.0394,0.9985,0.0268,-0.4112,0.0343,-0.1457
8844,-0.0453,1.0000,0.0290,-0.4112,-0.0268,-0.1457
8854,-0.0428,1.0007,0.0222,-0.3807,-0.0115,-0.1763
8864,-0.0472,0.9990,0.0254,-0.3044,0.0037,-0.2068
8874,-0.0450,1.0009,0.0237,-0.2433,0.0648,0.0375
8884,-0.0364,0.9982,0.0181,-0.2738,0.0495,0.0680
8894,-0.0379,1.0024,0.0198,-0.2433,0.0343,-0.0083
8904,-0.0362,0.9987,0.0193,-0.1822,0.0190,-0.0083
8914,-0.0352,1.0053,0.0176,-0.2280,0.0648,-0.0694
8924,-0.0345,0.9978,0.0193,-0.2127,0.0037,-0.1610
8934,-0.0406,1.0053,0.0155,-0.3196,-0.0573,-0.1610
8944,-0.0372,0.9958,0.0186,-0.3654,-0.0879,-0.3595
8954,-0.0359,1.0012,0.0227,-0.3960,-0.0726,-0.3900
8964,-0.0445,1.0007,0.0198,-0.4723,-0.0115,-0.4816
8974,-0.0431,0.9958,0.0176,-0.6097,0.0495,-0.5121
8984,-0.0470,0.9995,0.0239,-0.6555,0.0037,-0.4511
8994,-0.0494,1.0021,0.0322,-0.7624,0.0190,-0.3900
9004,-0.0440,0.9990,0.0326,-0.7776,0.0648,-0.2831
9014,-0.0504,0.9992,0.0329,-0.7166,0.0648,-0.1457
9024,-0.0455,0.9982,0.0305,-0.4570,0.0495,-0.0389
9034,-0.0480,0.9963,0.0256,-0.3654,0.0037,0.0680
9044,-0.0489,0.9995,0.0343,-0.3502,-0.0268,0.0833
9054,-0.0448,1.0017,0.0196,-0.3044,-0.0421,0.2665
9064,-0.0433,1.0019,0.0189,-0.1822,-0.0573,0.3886
9074,-0.0416,1.0009,0.0203,-0.2585,0.0495,0.5108
9084,-0.0355,1.0017,0.0237,-0.1975,0.0953,0.5413
9094,-0.0369,0.9990,0.0218,-0.2585,0.0343,0.4497
9104,-0.0374,0.9995,0.0322,-0.1669,-0.0115,0.3123
9114,-0.0362,0.9982,0.0237,-0.2433,-0.0573,0.0069
9124,-0.0362,0.9982,0.0307,-0.2127,0.0343,-0.0999
9134,-0.0433,1.0000,0.0372,-0.1517,0.0037,-0.1457
9144,-0.0359,0.9992,0.0191,-0.1211,0.0648,-0.0999
9154,-0.0399,1.0019,0.0278,0.0010,0.0343,-0.1457
9164,-0.0431,0.9960,0.0319,-0.1822,0.0495,-0.0541
9174,-0.0440,0.9990,0.0285,-0.1822,0.0801,-0.0999
9184,-0.0377,0.9995,0.0218,0.0010,0.0495,-0.0236
9194,-0.0404,1.0031,0.0128,-0.0601,-0.0115,-0.0236
9204,-0.0467,0.9995,0.0176,0.0468,-0.0115,-0.1457
9214,-0.0340,1.0036,0.0414,0.1231,-0.0115,-0.1610
9224,-0.0391,1.0100,-0.0007,0.3521,0.0953,-0.2068
9234,-0.0455,0.9992,0.0218,0.0010,0.0495,-0.3137
9244,-0.0418,1.0007,0.0372,0.0163,0.0648,-0.3747
9254,-0.0526,0.9997,0.0225,0.0315,-0.0115,-0.3289
9264,-0.0499,0.9980,0.0278,0.1842,0.0495,-0.2068
9274,-0.0531,1.0024,0.0368,0.3063,0.0037,0.0527
9284,-0.0450,1.0012,0.0213,0.3674,-0.0879,0.2665
9294,-0.0362,0.9992,0.0254,0.2605,-0.0573,0.4955
9304,-0.0413,0.9985,0.0261,0.1995,-0.0421,0.4802
9314,-0.0409,1.0014,0.0271,0.1689,0.0495,0.4344
9324,-0.0453,0.9982,0.0264,0.0773,-0.0421,0.4497
9334,-0.0423,1.0026,0.0222,0.1842,0.0495,0.4497
9344,-0.0413,1.0000,0.0305,0.2758,0.0190,0.4192
9354,-0.0428,1.0019,0.0353,0.4437,-0.0573,0.4650
9364,-0.0372,1.0014,0.0285,0.5506,-0.0421,0.5108
9374,-0.0303,0.9980,0.0242,0.7185,0.0037,0.4192
9384,-0.0288,1.0058,0.0191,0.8254,0.0343,0.2054
9394,-0.0320,1.0039,0.0256,0.8254,0.0343,-0.0236
9404,-0.0362,1.0000,0.0208,0.7338,0.0495,-0.2831
9414,-0.0450,1.0000,0.0237,0.6269,-0.0268,-0.4053
9424,-0.0458,0.9982,0.0251,0.5201,-0.0726,-0.4205
9434,-0.0440,1.0029,0.0218,0.4895,0.0037,-0.2373
9444,-0.0516,1.0007,0.0307,0.5659,-0.0115,-0.0999
9454,-0.0438,0.9982,0.0205,0.5811,0.0801,0.0222
9464,-0.0386,0.9968,0.0193,0.5048,-0.0115,0.1444
9474,-0.0458,0.9987,0.0239,0.5353,0.0648,0.1596
9484,-0.0367,0.9992,0.0167,0.4132,0.0953,0.0375
9494,-0.0342,1.0009,0.0176,0.2758,0.0343,-0.0236
9504,-0.0418,1.0000,0.0300,0.2147,0.0037,-0.1610
9514,-0.0465,1.0002,0.0326,0.2758,0.0190,-0.1457
9524,-0.0411,1.0000,0.0259,0.4132,-0.0421,-0.0999
9534,-0.0443,1.0034,0.0215,0.4590,-0.0421,-0.0389
9544,-0.0431,1.0041,0.0193,0.4590,0.0190,0.0222
9554,-0.0445,0.9968,0.0230,0.3979,-0.0421,0.1444
9564,-0.0406,1.0031,0.0259,0.4590,0.0801,0.1444
9574,-0.0399,1.0014,0.0288,0.5659,0.0343,0.1596
9584,-0.0426,0.9992,0.0288,0.6422,0.0495,0.1902
9594,-0.0426,0.9985,0.0261,0.6422,0.0343,0.2818
9604,-0.0389,1.0014,0.0109,0.6422,0.0801,0.3581
9614,-0.0384,0.9990,0.0285,0.5659,-0.0115,0.3581
9624,-0.0418,1.0024,0.0295,0.4743,0.0343,0.2207
9634,-0.0367,1.0056,0.0162,0.5811,0.0495,0.0833
9644,-0.0364,0.9992,0.0213,0.5201,0.0495,0.0833
9654,-0.0369,1.0009,0.0135,0.5048,-0.0268,-0.0694
9664,-0.0369,0.9997,0.0215,0.4285,0.0037,-0.1152
9674,-0.0399,1.0039,0.0266,0.4285,-0.0268,-0.2221
9684,-0.0411,1.0029,0.0181,0.4132,0.0037,-0.2526
9694,-0.0440,0.9973,0.0232,0.4437,-0.0115,-0.0847
9704,-0.0404,0.9978,0.0331,0.6269,0.0648,0.0375
9714,-0.0421,1.0004,0.0256,0.8102,0.0495,0.1596
9724,-0.0372,1.0014,0.0201,0.9323,0.0037,0.1444
9734,-0.0320,1.0004,0.0280,0.9018,0.0343,0.1138
9744,-0.0367,1.0039,0.0099,0.7949,0.0648,-0.0083
9754,-0.0445,1.0024,0.0189,0.6269,0.0037,-0.0694
9764,-0.0431,1.0012,0.0222,0.6422,0.0037,-0.1915
9774,-0.0413,1.0014,0.0235,0.5506,0.0343,-0.1915
9784,-0.0445,1.0002,0.0222,0.4743,0.0037,-0.2068
9794,-0.0436,1.0031,0.0254,0.4285,0.0343,-0.1610
9804,-0.0436,1.0024,0.0215,0.4743,0.0037,-0.1305
9814,-0.0453,0.9982,0.0232,0.4285,-0.0421,-0.1152
9824,-0.0512,0.9997,0.0145,0.5506,-0.0726,0.0375
9834,-0.0553,0.9958,0.0266,0.5659,-0.0268,0.2207
9844,-0.0382,0.9965,0.0225,0.5659,0.0037,0.4802
9854,-0.0261,1.0004,0.0201,0.4895,0.1106,0.4650
9864,-0.0377,1.0019,0.0162,0.4285,0.0495,0.4192
9874,-0.0345,0.9995,0.0150,0.3979,0.0190,0.3734
9884,-0.0396,1.0009,0.0181,0.4285,0.0648,0.2970
9894,-0.0394,1.0029,0.0094,0.4437,0.0495,0.2665
9904,-0.0401,1.0024,0.0167,0.3521,0.0190,0.2207
9914,-0.0423,0.9995,0.0256,0.2911,-0.0268,0.1902
9924,-0.0411,1.0021,0.0249,0.2147,-0.0268,0.2054
9934,-0.0342,1.0041,0.0181,0.2605,0.0343,0.2207
9944,-0.0367,1.0004,0.0208,0.1842,0.0648,0.1138
9954,-0.0418,1.0012,0.0167,0.0926,0.0343,-0.0083
9964,-0.0426,0.9987,0.0203,0.0010,0.0648,0.0222
9974,-0.0445,1.0014,0.0210,-0.1059,0.0648,0.0069
9984,-0.0436,1.0007,0.0213,-0.0601,0.0037,0.0680
9994,-0.0396,1.0000,0.0261,0.0315,-0.0573,0.0985
10004,-0.0406,0.9995,0.0285,0.1384,-0.1337,0.0833
10014,-0.0377,1.0004,0.0305,0.2758,0.0801,0.0069
10024,-0.0413,1.0041,0.0220,0.4437,0.0343,-0.0541
10034,-0.0359,1.0043,0.0176,0.6117,-0.0115,-0.0694
10044,-0.0347,0.9980,0.0169,0.5659,0.0037,-0.0847
10054,-0.0382,1.0000,0.0227,0.4743,-0.0268,-0.1305
10064,-0.0386,1.0007,0.0196,0.4285,0.0190,-0.1305
10074,-0.0423,1.0036,0.0169,0.3369,-0.0421,-0.1763
10084,-0.0291,1.0056,0.0116,0.2605,0.0648,-0.3137
10094,-0.0288,1.0009,0.0186,0.3521,-0.0115,-0.3747
10104,-0.0409,1.0046,0.0225,0.3063,0.0190,-0.5579
10114,-0.0448,1.0024,0.0235,0.3216,0.0037,-0.5274
10124,-0.0448,1.0000,0.0244,0.2605,-0.0268,-0.4053
10134,-0.0455,1.0004,0.0174,0.2453,0.0495,-0.4816
10144,-0.0462,1.0024,0.0215,0.2758,-0.0115,-0.3747
10154,-0.0458,1.0024,0.0244,0.3216,-0.0115,-0.2679
10164,-0.0448,1.0004,0.0205,0.2300,0.0343,-0.2221
10174,-0.0472,1.0009,0.0145,0.2453,-0.0421,-0.0694
10184,-0.0480,0.9992,0.0184,0.1537,0.0343,0.2054
10194,-0.0453,1.0017,0.0259,0.2300,0.0801,0.3428
10204,-0.0421,0.9946,0.0254,0.2605,0.0495,0.5108
10214,-0.0384,1.0034,0.0203,0.3521,0.0648,0.6024
10224,-0.0372,0.9987,0.0174,0.3827,0.1106,0.6024
10234,-0.0409,1.0019,0.0208,0.3674,0.0801,0.5718
10244,-0.0340,1.0034,0.0189,0.3674,-0.0421,0.4039
10254,-0.0355,0.9995,0.0198,0.3521,-0.0421,0.2818
10264,-0.0320,1.0014,0.0210,0.2147,-0.0421,0.1902
10274,-0.0374,1.0009,0.0179,0.2911,-0.0726,0.0985
10284,-0.0382,0.9995,0.0343,0.4132,-0.0115,-0.0541
10294,-0.0367,0.9990,0.0230,0.4895,0.0953,-0.0694
10304,-0.0389,0.9992,0.0174,0.4743,0.0343,-0.1610
10314,-0.0413,1.0031,0.0191,0.5201,-0.1184,-0.0847
10324,-0.0423,1.0017,0.0201,0.4437,-0.0726,-0.1152
10334,-0.0472,0.9995,0.0225,0.5048,-0.0726,-0.0236
10344,-0.0409,1.0036,0.0235,0.3979,0.0037,-0.0236
10354,-0.0438,1.0043,0.0169,0.3521,-0.0268,0.0833
10364,-0.0313,1.0004,0.0186,0.2758,0.0343,0.0375
10374,-0.0374,0.9975,0.0210,0.2300,0.0495,0.0375
10384,-0.0367,1.0014,0.0237,0.2605,-0.0268,-0.0389
10394,-0.0391,1.0014,0.0176,0.1995,0.0037,-0.1305
10404,-0.0372,1.0046,0.0186,0.2147,0.0037,-0.1610
10414,-0.0423,0.9978,0.0189,0.1689,-0.0268,-0.2679
10424,-0.0445,0.9980,0.0230,0.0926,-0.0268,-0.2068
10434,-0.0450,1.0012,0.0249,0.1384,0.0037,-0.2068
10444,-0.0489,1.0004,0.0222,0.2453,-0.0268,0.0069
10454,-0.0347,0.9975,0.0312,0.3521,-0.0421,0.0527
10464,-0.0377,0.9992,0.0155,0.4132,0.0037,0.1138
10474,-0.0396,1.0021,0.0215,0.4132,-0.0421,0.1138
10484,-0.0379,1.0048,0.0172,0.3827,0.0495,-0.0541
10494,-0.0357,1.0012,0.0157,0.1842,-0.0115,-0.1152
10504,-0.0391,0.9990,0.0162,0.1231,-0.0421,-0.1457
10514,-0.0416,1.0036,0.0220,0.1079,-0.0573,-0.1305
10524,-0.0443,1.0029,0.0203,0.1231,-0.0573,-0.0999
10534,-0.0406,1.0012,0.0162,0.1231,-0.0421,-0.0083
10544,-0.0465,0.9985,0.0230,0.0926,0.0190,0.0833
10554,-0.0411,0.9973,0.0290,0.0926,0.1259,0.1749
10564,-0.0418,0.9990,0.0205,0.2147,0.0343,0.2360
10574,-0.0406,1.0026,0.0203,0.1995,-0.0268,0.2970
10584,-0.0369,1.0000,0.0208,0.2758,-0.0573,0.2512
10594,-0.0377,1.0021,0.0210,0.2147,-0.1031,0.2360
10604,-0.0421,1.0004,0.0176,0.1689,-0.0421,0.2207
10614,-0.0396,0.9995,0.0266,0.0010,-0.0421,0.2207
10624,-0.0413,0.9973,0.0172,0.0468,0.0801,0.2512
10634,-0.0359,1.0012,0.0208,0.1231,0.0953,0.2818
10644,-0.0369,0.9990,0.0215,0.0621,0.0495,0.1749
10654,-0.0433,0.9978,0.0155,0.0468,0.0190,0.0680
10664,-0.0433,0.9995,0.0215,0.0773,0.0343,0.0069
10674,-0.0345,1.0031,0.0295,0.0163,-0.0115,-0.0236
10684,-0.0421,1.0024,0.0152,0.0010,-0.0573,-0.0999
10694,-0.0426,1.0007,0.0143,0.0468,-0.0726,-0.0999
10704,-0.0489,1.0014,0.0244,0.0010,-0.0421,-0.0999
10714,-0.0460,0.9987,0.0220,0.0163,-0.0115,-0.0847
10724,-0.0367,1.0012,0.0157,0.0773,0.0190,0.0680
10734,-0.0401,1.0002,0.0174,0.0926,0.0953,0.0222
10744,-0.0396,0.9965,0.0251,0.1079,0.0648,0.0375
10754,-0.0426,0.9985,0.0191,0.1689,-0.0115,0.0069
10764,-0.0340,1.0017,0.0225,0.0315,0.0343,0.0069
10774,-0.0367,1.0053,0.0150,-0.0906,-0.0421,-0.0541
10784,-0.0342,1.0053,0.0157,-0.0601,-0.0115,-0.1915
10794,-0.0384,0.9990,0.0249,-0.0753,-0.0421,-0.2984
10804,-0.0418,0.9982,0.0288,-0.0753,0.0495,-0.2221
10814,-0.0475,1.0021,0.0251,0.0468,0.0495,-0.0694
10824,-0.0411,0.9990,0.0201,0.1384,0.0343,0.0375
10834,-0.0455,0.9985,0.0256,0.1842,0.0343,0.1444
10844,-0.0428,1.0004,0.0152,0.1231,0.0495,0.1444
10854,-0.0374,1.0019,0.0174,0.0468,-0.0115,0.2665
10864,-0.0413,1.0009,0.0208,0.0010,0.0190,0.2054
10874,-0.0382,1.0026,0.0179,0.0163,0.0343,0.1444
10884,-0.0384,1.0036,0.0208,0.0773,0.0190,0.1596
10894,-0.0418,1.0012,0.0244,0.0010,0.0343,-0.0083
10904,-0.0359,0.9987,0.0225,0.0773,0.0648,-0.0083
10914,-0.0401,0.9997,0.0271,0.1689,0.0190,-0.0999
10924,-0.0445,0.9982,0.0218,0.3369,0.0037,-0.0541
10934,-0.0431,0.9987,0.0237,0.4132,-0.0573,-0.0694
10944,-0.0401,0.9980,0.0157,0.3369,-0.0573,0.0222
10954,-0.0330,1.0007,0.0256,0.2147,0.0190,-0.0236
10964,-0.0330,1.0012,0.0164,0.2758,0.0037,-0.1763
10974,-0.0377,0.9992,0.0230,0.2453,-0.0268,-0.2984
10984,-0.0436,1.0000,0.0193,0.1537,0.0648,-0.2831
10994,-0.0421,1.0041,0.0191,0.0773,0.0190,-0.2526
11004,-0.0345,0.9978,0.0247,0.1079,-0.0421,-0.1610
11014,-0.0421,1.0041,0.0251,0.1231,0.0190,-0.0694
11024,-0.0330,1.0029,0.0104,0.1384,-0.0115,-0.0694
11034,-0.0357,0.9992,0.0152,-0.0448,0.0190,-0.2984
11044,-0.0416,1.0036,0.0242,0.0773,0.0037,-0.2679
11054,-0.0458,0.9975,0.0285,0.0468,0.0037,-0.3747
11064,-0.0502,1.0002,0.0225,0.1079,-0.0421,-0.3289
11074,-0.0509,0.9995,0.0266,0.1537,0.0037,-0.1610
11084,-0.0445,1.0007,0.0244,0.1384,-0.0268,0.0833
11094,-0.0436,1.0000,0.0227,0.1537,-0.0115,0.1138
11104,-0.0453,1.0026,0.0218,0.1231,0.0343,0.3276
11114,-0.0445,1.0009,0.0249,0.4132,0.0190,0.4344
11124,-0.0404,1.0012,0.0225,0.5048,0.0801,0.5566
11134,-0.0333,1.0019,0.0101,0.3979,0.0953,0.6482
11144,-0.0256,1.0002,0.0060,0.3979,0.0037,0.4955
11154,-0.0239,0.9987,0.0176,0.2300,-0.0115,0.1749
11164,-0.0347,1.0004,0.0193,0.1995,0.0190,-0.0999
11174,-0.0352,1.0017,0.0176,0.1689,-0.0573,-0.2831
11184,-0.0426,1.0017,0.0235,0.1995,0.0801,-0.5121
11194,-0.0458,1.0009,0.0254,0.2453,0.0495,-0.4205
11204,-0.0411,1.0004,0.0244,0.2453,0.0801,-0.3747
11214,-0.0460,1.0073,0.0208,0.3827,0.0648,-0.2984
11224,-0.0450,1.0046,0.0235,0.5659,-0.0268,-0.0999
11234,-0.0450,1.0009,0.0283,0.6727,0.0648,-0.0083
11244,-0.0524,0.9970,0.0280,0.8712,0.0343,0.1291
11254,-0.0433,0.9980,0.0251,0.9170,0.0343,0.3581
11264,-0.0411,1.0004,0.0271,1.0239,0.0190,0.4344
11274,-0.0350,0.9980,0.0143,1.1460,0.0190,0.4650
11284,-0.0409,0.9975,0.0184,1.2071,0.0190,0.4497
11294,-0.0310,0.9978,0.0193,1.2224,-0.0268,0.3581
11304,-0.0340,1.0034,0.0160,1.1155,0.0343,0.3123
11314,-0.0357,1.0002,0.0111,1.2071,0.0190,0.2360
11324,-0.0291,0.9995,0.0080,1.0544,-0.0115,-0.0236
11334,-0.0328,1.0009,0.0106,0.9476,-0.0268,-0.1610
11344,-0.0308,1.0039,0.0041,0.7491,-0.0268,-0.3442
11354,-0.0431,0.9978,0.0101,0.4743,-0.0268,-0.4816
11364,-0.0487,1.0024,0.0157,0.3369,-0.0726,-0.5579
11374,-0.0499,1.0029,0.0249,0.2911,-0.0726,-0.3900
11384,-0.0470,0.9982,0.0280,0.2453,-0.0115,-0.1610
11394,-0.0494,1.0019,0.0193,0.3216,0.0801,0.0375
11404,-0.0433,1.0000,0.0237,0.3063,0.0495,0.1138
11414,-0.0499,1.0017,0.0235,0.3674,0.0648,0.2512
11424,-0.0509,0.9995,0.0297,0.6575,0.0495,0.4955
11434,-0.0467,1.0007,0.0273,0.7644,0.0343,0.6176
11444,-0.0421,0.9980,0.0213,0.8560,-0.0268,0.8161
11454,-0.0355,1.0039,0.0210,0.9934,-0.0115,0.8466
11464,-0.0379,1.0017,0.0126,1.0850,0.0037,0.7550
11474,-0.0325,0.9982,0.0155,1.1766,-0.0421,0.6482
11484,-0.0330,0.9968,0.0205,1.1002,-0.0115,0.5413
11494,-0.0340,1.0019,0.0172,1.1460,0.0037,0.2818
11504,-0.0252,1.0039,0.0174,1.1460,-0.0573,0.1138
11514,-0.0308,0.9992,0.0184,1.1613,-0.0726,-0.0541
11524,-0.0374,1.0007,0.0198,1.2834,-0.0115,-0.1610
11534,-0.0391,0.9973,0.0114,1.1460,-0.0879,-0.2984
11544,-0.0384,0.9990,0.0104,1.2376,-0.0421,-0.3442
11554,-0.0335,1.0014,0.0145,1.2224,-0.0268,-0.3900
11564,-0.0296,1.0017,-0.0090,1.0850,0.0037,-0.4511
11574,-0.0389,1.0043,-0.0048,0.8254,0.0648,-0.5274
11584,-0.0394,0.9958,0.0041,0.4895,-0.0268,-0.7106
11594,-0.0460,1.0024,0.0092,0.1689,-0.0115,-0.7869
11604,-0.0416,0.9992,0.0101,-0.1517,-0.0573,-0.8175
11614,-0.0539,1.0029,0.0075,-0.3196,-0.0421,-0.7259
11624,-0.0558,1.0009,0.0128,-0.4570,0.0343,-0.5579
11634,-0.0524,1.0046,0.0092,-0.5792,0.0648,-0.2221
11644,-0.0516,1.0043,0.0164,-0.7166,0.0190,0.0375
11654,-0.0477,0.9990,0.0109,-0.7776,0.0495,0.2818
11664,-0.0467,1.0029,0.0109,-0.7776,0.0648,0.4802
11674,-0.0399,1.0004,0.0261,-0.7471,0.1106,0.6940
11684,-0.0470,1.0024,0.0280,-0.5944,0.0343,0.9077
11694,-0.0411,0.9985,0.0254,-0.4112,0.0037,1.0298
11704,-0.0330,1.0004,0.0336,-0.1975,-0.0421,1.0909
11714,-0.0337,1.0012,0.0193,-0.0753,0.0190,0.9230
11724,-0.0313,0.9973,0.0109,0.0468,0.1106,0.8008
11734,-0.0269,0.9963,0.0174,0.1537,0.0801,0.7398
11744,-0.0274,1.0034,0.0244,0.2147,0.0495,0.5413
11754,-0.0279,0.9992,0.0227,0.3216,-0.0268,0.1596
11764,-0.0391,0.9990,0.0317,0.5048,-0.0726,-0.0999
11774,-0.0303,0.9963,0.0235,0.6880,-0.0421,-0.2373
11784,-0.0301,0.9987,0.0126,0.8102,-0.0726,-0.2984
11794,-0.0335,1.0036,0.0179,0.7949,-0.0879,-0.4816
11804,-0.0401,1.0034,0.0128,0.8254,-0.0726,-0.5427
11814,-0.0404,1.0004,0.0145,0.7185,-0.0268,-0.5885
11824,-0.0389,1.0056,0.0143,0.7338,-0.1031,-0.5274
11834,-0.0377,1.0019,0.0169,0.6880,0.0190,-0.5427
11844,-0.0423,0.9992,0.0131,0.6575,-0.1031,-0.5732
11854,-0.0480,1.0021,0.0114,0.5201,-0.0726,-0.4663
11864,-0.0553,1.0041,0.0114,0.4285,0.0037,-0.3137
11874,-0.0436,1.0021,0.0048,0.2147,0.0037,-0.1610
11884,-0.0453,1.0029,0.0070,0.0315,0.0037,0.1138
11894,-0.0445,1.0000,0.0111,-0.1364,0.0953,0.2360
11904,-0.0409,1.0039,0.0268,-0.2891,0.0495,0.3428
11914,-0.0460,1.0017,0.0271,-0.1822,-0.0421,0.4344
11924,-0.0507,0.9987,0.0266,-0.1364,0.0495,0.5260
11934,-0.0504,1.0012,0.0363,0.0926,0.0343,0.7245
11944,-0.0482,1.0009,0.0300,0.4437,0.0343,1.0146
11954,-0.0386,0.9975,0.0157,0.7491,0.0190,1.2741
11964,-0.0254,0.9987,0.0133,0.9018,0.0343,1.3810
11974,-0.0200,1.0000,0.0111,0.9476,-0.0115,1.1978
11984,-0.0139,1.0031,0.0065,0.9628,-0.0115,0.6787
11994,-0.0112,0.9980,0.0063,0.9781,-0.0115,0.0069
12004,-0.0207,1.0029,0.0024,0.7491,-0.0268,-0.6037
12014,-0.0234,1.0007,0.0019,0.5353,0.0190,-1.0923
12024,-0.0315,0.9992,0.0080,0.1689,-0.0268,-1.4434
12034,-0.0440,0.9973,0.0075,-0.1364,0.0343,-1.5808
12044,-0.0394,1.0019,0.0007,-0.4112,-0.0421,-1.6572
12054,-0.0455,1.0065,0.0077,-0.7166,0.0190,-1.5808
12064,-0.0600,1.0024,0.0247,-0.8540,0.0190,-1.4740
12074,-0.0639,0.9982,0.0210,-0.9608,0.0343,-1.0007
12084,-0.0646,1.0019,0.0280,-0.9303,0.0648,-0.4816
12094,-0.0558,1.0031,0.0256,-0.8234,0.0953,0.0375
12104,-0.0610,1.0002,0.0160,-0.6860,0.0343,0.5871
12114,-0.0556,1.0034,0.0176,-0.6250,0.0190,1.0604
12124,-0.0507,0.9997,0.0186,-0.4723,-0.0268,1.3505
12134,-0.0396,1.0029,0.0193,-0.2433,-0.0421,1.5795
12144,-0.0279,0.9980,0.0172,-0.2280,0.0037,1.6253
12154,-0.0207,1.0026,0.0135,-0.1517,-0.0421,1.4421
12164,-0.0146,1.0000,0.0048,-0.1822,0.0343,1.0146
12174,-0.0122,0.9978,-0.0051,-0.3196,0.0190,0.5108
12184,-0.0163,1.0012,0.0075,-0.7318,0.0190,-0.0541
12194,-0.0225,0.9987,0.0029,-1.0372,-0.0726,-0.6343
12204,-0.0291,1.0041,0.0068,-1.2815,-0.0421,-1.0312
12214,-0.0359,1.0021,0.0150,-1.4647,-0.0268,-1.1076
12224,-0.0386,1.0002,0.0251,-1.4799,-0.0115,-1.1686
12234,-0.0462,1.0004,0.0162,-1.4647,-0.0268,-1.1686
12244,-0.0477,1.0026,0.0172,-1.4494,0.0648,-1.0923
12254,-0.0556,1.0026,0.0201,-1.3120,0.0343,-0.8938
12264,-0.0570,0.9985,0.0169,-1.2967,0.0495,-0.4663
12274,-0.0558,0.9995,0.0220,-1.2967,0.0495,-0.1610
12284,-0.0514,1.0000,0.0254,-1.3578,0.0801,-0.0236
12294,-0.0499,1.0036,0.0293,-1.3273,0.0037,0.1902
12304,-0.0494,1.0056,0.0271,-1.1593,-0.0268,0.3123
12314,-0.0509,0.9973,0.0276,-0.8540,-0.1489,0.5260
12324,-0.0553,0.9975,0.0382,-0.6097,-0.0573,0.6482
12334,-0.0548,1.0000,0.0360,-0.3044,-0.0268,0.9993
12344,-0.0556,0.9985,0.0392,0.0468,-0.0421,1.3657
12354,-0.0382,0.9956,0.0319,0.2911,-0.0421,1.6711
12364,-0.0259,1.0051,0.0300,0.5506,0.0037,1.7169
12374,-0.0200,0.9992,0.0273,0.6880,-0.0115,1.5031
12384,-0.0166,1.0019,0.0261,0.7644,0.0037,1.1825
12394,-0.0198,0.9990,0.0222,0.8560,0.0343,0.9077
12404,-0.0212,0.9997,0.0126,0.9476,-0.0268,0.4650
12414,-0.0252,0.9982,0.0222,0.9476,-0.0421,0.0985
12424,-0.0239,1.0046,0.0242,0.9476,-0.0115,-0.1305
12434,-0.0320,1.0017,0.0266,1.1155,-0.0115,-0.3442
12444,-0.0480,0.9975,0.0242,1.2529,-0.0268,-0.6343
12454,-0.0453,0.9982,0.0242,1.4361,-0.0573,-0.6648
12464,-0.0399,1.0036,0.0264,1.5124,0.0343,-0.6495
12474,-0.0389,0.9980,0.0143,1.6040,-0.1184,-0.5885
12484,-0.0355,1.0019,0.0082,1.4972,-0.0421,-0.5732
12494,-0.0411,1.0029,0.0094,1.3903,-0.0421,-0.7717
12504,-0.0450,1.0000,0.0087,1.2071,-0.0573,-0.8633
12514,-0.0482,0.9975,0.0072,0.9781,0.0495,-0.7106
12524,-0.0502,1.0034,0.0160,0.8712,-0.0573,-0.5427
12534,-0.0438,1.0051,0.0143,0.7796,-0.0268,-0.2221
12544,-0.0440,1.0014,0.0075,0.7033,0.0037,-0.0389
12554,-0.0440,1.0012,-0.0015,0.5811,0.0801,0.0680
12564,-0.0342,1.0029,-0.0019,0.2605,0.0495,0.1596
12574,-0.0391,1.0017,0.0087,-0.0753,-0.0421,0.2054
12584,-0.0448,1.0007,0.0034,-0.2433,-0.0573,0.3123
12594,-0.0450,0.9992,0.0145,-0.5181,0.0190,0.4650
12604,-0.0399,0.9992,0.0285,-0.5028,0.0343,0.5718
12614,-0.0409,1.0031,0.0152,-0.5486,-0.0115,0.7398
12624,-0.0426,1.0000,0.0164,-0.5792,-0.0268,0.7398
12634,-0.0426,1.0029,0.0220,-0.5181,-0.0268,0.7703
12644,-0.0406,1.0007,0.0280,-0.3654,0.0037,0.8008
12654,-0.0364,1.0026,0.0176,-0.2280,0.0190,0.7550
12664,-0.0325,0.9985,0.0203,-0.1211,-0.0421,0.7245
12674,-0.0244,0.9960,0.0196,-0.0295,0.0037,0.4955
12684,-0.0229,1.0036,0.0220,0.0621,-0.0726,0.1749
12694,-0.0306,0.9990,0.0189,0.0315,0.0037,-0.1915
12704,-0.0296,0.9995,0.0189,0.0315,-0.0879,-0.3900
12714,-0.0301,1.0002,0.0264,0.0315,0.0343,-0.6190
12724,-0.0335,0.9965,0.0186,0.1384,0.0495,-0.6648
12734,-0.0409,1.0031,0.0116,0.0926,0.0190,-0.7411
12744,-0.0431,1.0009,0.0235,0.0926,-0.0421,-0.7717
12754,-0.0401,0.9992,0.0157,0.0010,0.0037,-0.7106
12764,-0.0438,1.0017,0.0106,-0.0906,-0.0268,-0.5885
12774,-0.0448,1.0024,0.0218,-0.0753,0.0190,-0.5732
12784,-0.0450,0.9973,0.0227,-0.0601,0.0648,-0.4816
12794,-0.0367,1.0014,0.0150,-0.0601,0.0953,-0.4511
12804,-0.0406,1.0041,0.0099,-0.0295,0.0495,-0.4205
12814,-0.0494,0.9963,0.0264,-0.1517,0.0343,-0.4358
12824,-0.0458,1.0000,0.0268,-0.1822,0.0495,-0.2984
12834,-0.0426,1.0021,0.0218,-0.1211,0.0648,-0.1610
12844,-0.0436,1.0034,0.0164,-0.0448,0.1106,0.0527
12854,-0.0364,1.0002,0.0176,-0.0753,0.0801,0.1749
12864,-0.0244,0.9987,0.0131,-0.1364,0.0648,0.1138
12874,-0.0266,1.0034,-0.0022,-0.2433,0.0343,-0.0389
12884,-0.0379,1.0056,0.0254,-0.2585,-0.0268,-0.1152
12894,-0.0382,1.0019,0.0305,-0.2891,-0.0268,-0.1457
12904,-0.0418,1.0026,0.0242,-0.3044,-0.0573,-0.1457
12914,-0.0509,0.9948,0.0341,-0.0448,-0.0421,-0.0083
12924,-0.0489,1.0002,0.0285,0.1231,0.0190,0.0985
12934,-0.0406,0.9992,0.0179,0.3216,0.0953,0.3276
12944,-0.0320,0.9987,0.0145,0.4285,0.0343,0.3123
12954,-0.0330,1.0007,0.0160,0.4895,0.0190,0.2818
12964,-0.0352,1.0000,0.0135,0.3369,0.0801,0.0375
12974,-0.0345,1.0046,0.0160,0.3827,0.0343,-0.1305
12984,-0.0337,1.0024,0.0273,0.3827,0.0648,-0.3289
12994,-0.0374,1.0012,0.0235,0.3674,0.0953,-0.4969
13004,-0.0355,1.0017,0.0189,0.3674,0.0343,-0.6037
13014,-0.0431,1.0012,0.0261,0.3827,-0.0115,-0.8022
13024,-0.0462,1.0000,0.0213,0.4590,-0.0115,-0.6190
13034,-0.0497,0.9985,0.0218,0.4285,-0.0115,-0.4816
13044,-0.0487,0.9992,0.0179,0.3979,0.0648,-0.1915
13054,-0.0345,1.0026,0.0092,0.3216,0.0495,-0.0389
13064,-0.0342,1.0036,0.0094,0.3063,0.1106,-0.0389
13074,-0.0364,0.9987,0.0080,0.0315,0.0190,-0.0847
13084,-0.0416,0.9975,0.0247,-0.1364,0.0343,-0.1457
13094,-0.0450,1.0014,0.0208,-0.2280,0.0037,-0.0083
13104,-0.0507,1.0029,0.0118,-0.3044,0.0495,-0.0236
13114,-0.0436,1.0000,0.0222,-0.2891,0.0953,0.2360
13124,-0.0409,0.9995,0.0140,-0.3349,0.0495,0.2818
13134,-0.0382,0.9980,0.0160,-0.4265,0.0190,0.3581
13144,-0.0396,0.9980,0.0297,-0.4570,0.0801,0.2665
13154,-0.0455,1.0004,0.0242,-0.4265,-0.0115,0.2207
13164,-0.0404,1.0014,0.0176,-0.2280,0.0343,0.1596
13174,-0.0413,1.0012,0.0213,-0.2280,-0.0421,0.1749
13184,-0.0386,1.0002,0.0244,-0.2738,0.0190,0.1596
13194,-0.0382,1.0009,0.0278,-0.1517,-0.0115,0.2054
13204,-0.0372,0.9997,0.0235,-0.0143,-0.0115,0.1444
13214,-0.0372,1.0004,0.0264,0.1537,0.0343,0.1596
13224,-0.0401,0.9963,0.0261,0.2453,0.0343,0.1444
13234,-0.0306,1.0002,0.0280,0.3521,0.0801,0.0222
13244,-0.0342,0.9960,0.0150,0.4132,0.0343,-0.0236
13254,-0.0359,0.9960,0.0210,0.4437,-0.0115,-0.0847
13264,-0.0372,0.9963,0.0172,0.4285,-0.0421,-0.1152
13274,-0.0418,0.9987,0.0256,0.5659,-0.0421,-0.0847
13284,-0.0406,1.0009,0.0268,0.5964,-0.0115,-0.1305
13294,-0.0462,1.0002,0.0196,0.7949,0.0648,0.0680
13304,-0.0399,1.0012,0.0179,0.8407,0.0190,0.1444
13314,-0.0325,1.0046,0.0080,0.8712,0.0648,0.1138
13324,-0.0352,1.0041,0.0128,0.8102,0.0190,0.1138
13334,-0.0401,1.0053,0.0210,0.7033,-0.0268,0.0222
13344,-0.0372,1.0026,0.0249,0.6269,0.0190,0.0222
13354,-0.0404,1.0021,0.0176,0.6422,-0.0115,0.0222
13364,-0.0409,0.9997,0.0109,0.5811,-0.0115,0.0375
13374,-0.0355,1.0017,0.0131,0.5048,-0.0115,0.0375
13384,-0.0374,1.0009,0.0147,0.3979,0.0343,-0.0999
13394,-0.0399,0.9987,0.0036,0.2758,-0.0573,-0.0236
13404,-0.0436,1.0009,0.0172,0.1842,0.0343,-0.0694
13414,-0.0472,1.0036,0.0179,0.1079,0.0190,0.0222
13424,-0.0355,1.0026,0.0155,0.0926,0.0648,0.2054
13434,-0.0428,1.0002,0.0193,0.0926,0.0495,0.3123
13444,-0.0411,1.0012,0.0218,0.0163,0.0648,0.3276
13454,-0.0347,1.0009,0.0189,0.0010,0.0495,0.2360
13464,-0.0364,1.0000,0.0230,-0.0448,-0.0268,0.2054
13474,-0.0421,0.9992,0.0145,-0.0295,-0.0115,0.1138
13484,-0.0396,0.9975,0.0213,-0.0753,-0.0268,0.0833
13494,-0.0406,0.9980,0.0227,-0.1059,0.0343,0.0985
13504,-0.0443,1.0002,0.0290,0.0010,-0.0115,0.0527
13514,-0.0404,0.9992,0.0314,0.2147,0.0190,0.0527
13524,-0.0428,1.0014,0.0167,0.3827,-0.0726,0.0069
13534,-0.0369,1.0024,0.0210,0.3979,0.0648,0.1444
13544,-0.0333,1.0024,0.0196,0.4437,0.0037,0.1138
13554,-0.0401,1.0000,0.0210,0.5506,-0.0573,0.0069
13564,-0.0347,1.0012,0.0157,0.5353,0.0190,0.0069
13574,-0.0306,1.0019,0.0145,0.6269,0.0190,0.0069
13584,-0.0271,1.0000,0.0186,0.7338,-0.0573,-0.2068
13594,-0.0347,1.0000,0.0230,0.6727,0.0495,-0.2679
13604,-0.0345,1.0000,0.0085,0.6422,0.0343,-0.3900
13614,-0.0369,1.0007,0.0164,0.3979,0.0037,-0.5579
13624,-0.0418,1.0004,0.0058,0.2453,0.0343,-0.6953
13634,-0.0433,1.0021,0.0060,0.1384,0.0190,-0.6801
13644,-0.0467,0.9987,0.0227,-0.0143,0.0801,-0.5579
13654,-0.0489,0.9980,0.0242,-0.0448,0.0037,-0.4663
13664,-0.0514,0.9980,0.0244,0.0163,-0.0115,-0.3595
13674,-0.0475,1.0014,0.0164,0.0621,-0.0115,-0.1610
13684,-0.0502,0.9982,0.0218,0.1689,0.0343,0.0375
13694,-0.0504,1.0012,0.0193,0.1995,0.0648,0.2970
13704,-0.0401,0.9973,0.0135,0.1689,0.0190,0.4650
13714,-0.0409,1.0002,0.0143,0.1842,0.0343,0.5108
13724,-0.0399,1.0012,0.0167,0.2300,-0.0421,0.6176
13734,-0.0374,1.0024,0.0230,0.2911,-0.0115,0.6329
13744,-0.0342,1.0061,0.0123,0.2147,0.0037,0.4039
13754,-0.0330,0.9997,0.0121,0.3216,0.0343,0.3581
13764,-0.0330,1.0009,0.0227,0.3216,-0.0115,0.2054
13774,-0.0367,1.0017,0.0193,0.2605,0.0190,0.1138
13784,-0.0328,1.0031,0.0235,0.4285,0.0037,0.0222
13794,-0.0335,1.0012,0.0184,0.4285,-0.0115,-0.2373
13804,-0.0401,1.0002,0.0227,0.4437,-0.0268,-0.3595
13814,-0.0443,0.9941,0.0135,0.6269,0.0495,-0.3595
13824,-0.0455,0.9992,0.0237,0.6880,0.0648,-0.3595
13834,-0.0328,1.0039,0.0198,0.8102,0.0190,-0.2984
13844,-0.0382,1.0007,0.0181,0.8254,0.0190,-0.1763
13854,-0.0487,0.9997,0.0205,0.7185,0.0495,-0.2373
13864,-0.0330,0.9987,0.0193,0.6422,-0.0115,-0.2679
13874,-0.0335,1.0029,0.0220,0.6727,-0.0268,-0.3595
13884,-0.0389,1.0026,0.0196,0.6727,0.0648,-0.3747
13894,-0.0475,1.0000,0.0201,0.7491,0.0190,-0.3900
13904,-0.0489,1.0043,0.0218,0.8102,0.0343,-0.2831
13914,-0.0440,0.9978,0.0186,0.9628,-0.0115,-0.0389
13924,-0.0539,1.0007,0.0157,1.0239,0.0343,0.1291
13934,-0.0431,1.0004,0.0145,1.2071,-0.0421,0.3428
13944,-0.0394,1.0017,0.0155,1.2682,-0.0879,0.5718
13954,-0.0330,1.0012,0.0147,1.2071,0.0190,0.5413
13964,-0.0345,1.0043,0.0099,1.1308,0.0190,0.4344
13974,-0.0261,0.9995,0.0053,0.8865,0.0495,0.4039
13984,-0.0335,1.0017,0.0041,0.6269,0.0343,0.0985
13994,-0.0421,1.0017,0.0106,0.3674,-0.0115,-0.1305
14004,-0.0355,0.9982,0.0106,0.1231,0.0190,-0.1763
14014,-0.0340,1.0024,0.0106,-0.0753,0.0495,-0.2984
14024,-0.0433,1.0036,0.0222,-0.1517,0.0343,-0.2373
14034,-0.0458,1.0000,0.0189,-0.1211,0.0037,-0.1763
14044,-0.0453,0.9975,0.0150,-0.1975,0.0495,-0.1152
14054,-0.0443,1.0026,0.0174,-0.1822,-0.0115,-0.0694
14064,-0.0413,1.0021,0.0143,-0.1517,0.0190,0.0069
14074,-0.0428,1.0021,0.0070,-0.1517,0.0190,0.0069
14084,-0.0409,1.0014,0.0128,-0.1975,0.0037,0.0833
14094,-0.0416,1.0014,0.0138,-0.2433,-0.0268,0.1749
14104,-0.0357,1.0004,0.0172,-0.2127,0.0037,0.2054
14114,-0.0386,1.0014,0.0087,-0.2127,0.0495,0.2054
14124,-0.0323,1.0039,0.0201,-0.2585,0.0037,0.1291
14134,-0.0359,0.9982,0.0210,-0.3196,-0.0573,0.0833
14144,-0.0374,1.0034,0.0213,-0.2433,-0.0726,-0.0847
14154,-0.0440,1.0017,0.0186,-0.3502,-0.0268,-0.1152
14164,-0.0399,0.9956,0.0092,-0.3960,-0.0115,-0.1457
14174,-0.0404,1.0007,0.0201,-0.5486,0.0495,-0.0236
14184,-0.0450,1.0019,0.0189,-0.4723,0.0343,-0.0236
14194,-0.0431,1.0019,0.0174,-0.4265,0.0801,0.1444
14204,-0.0374,0.9980,0.0232,-0.3044,0.0953,0.1596
14214,-0.0391,0.9956,0.0307,-0.1669,0.1106,0.1596
14224,-0.0382,0.9980,0.0251,-0.0906,0.0343,0.2054
14234,-0.0362,0.9992,0.0191,0.0773,0.0495,0.0527
14244,-0.0379,1.0002,0.0191,0.1384,0.0953,-0.0999
14254,-0.0428,1.0026,0.0271,0.2453,0.0495,-0.1152
14264,-0.0364,0.9985,0.0249,0.3521,-0.0268,-0.0999
14274,-0.0396,1.0063,0.0201,0.4285,0.0190,-0.0999
14284,-0.0335,1.0014,0.0128,0.4590,0.0343,-0.1152
14294,-0.0389,1.0002,0.0135,0.3521,-0.0115,-0.1305
14304,-0.0423,1.0007,0.0261,0.3521,0.0037,-0.2679
14314,-0.0399,0.9992,0.0179,0.3063,-0.0115,-0.2068
14324,-0.0443,1.0002,0.0210,0.2758,0.0190,-0.1305
14334,-0.0460,0.9990,0.0145,0.3369,0.0343,0.1138
14344,-0.0396,0.9990,0.0215,0.2911,-0.0573,0.1291
14354,-0.0382,1.0031,0.0147,0.3521,0.0037,0.2207
14364,-0.0391,1.0000,0.0101,0.3216,-0.0421,0.2054
14374,-0.0409,1.0002,0.0155,0.3216,-0.0421,0.2207
14384,-0.0399,1.0034,0.0172,0.2453,-0.0115,0.1596
14394,-0.0460,1.0009,0.0235,0.1537,0.0343,0.1902
14404,-0.0475,1.0017,0.0218,0.1079,0.0190,0.2512
14414,-0.0487,1.0012,0.0222,0.2147,-0.0115,0.4192
14424,-0.0428,1.0024,0.0227,0.2453,-0.0268,0.4955
14434,-0.0431,0.9985,0.0317,0.4132,-0.0421,0.5260
14444,-0.0391,1.0009,0.0155,0.4590,0.0190,0.6024
14454,-0.0406,1.0034,0.0213,0.4437,-0.0115,0.6329
14464,-0.0426,0.9985,0.0242,0.5506,-0.0115,0.6482
14474,-0.0401,1.0026,0.0155,0.6575,-0.1489,0.6787
14484,-0.0369,1.0014,0.0176,0.6422,-0.0726,0.6024
14494,-0.0347,0.9980,0.0181,0.6422,0.0190,0.6482
14504,-0.0345,1.0009,0.0164,0.4895,0.0037,0.4955
14514,-0.0328,1.0000,0.0205,0.5659,-0.0268,0.4650
14524,-0.0261,0.9973,0.0080,0.5353,0.0495,0.2054
14534,-0.0232,1.0029,0.0099,0.4895,0.0648,-0.0847
14544,-0.0249,1.0048,0.0128,0.4132,0.0343,-0.3442
14554,-0.0313,1.0004,0.0116,0.3216,0.0037,-0.6037
14564,-0.0394,0.9987,0.0128,0.3216,0.0648,-0.7717
14574,-0.0443,0.9970,0.0145,0.3521,0.0037,-0.7106
14584,-0.0399,1.0002,0.0140,0.3063,0.0953,-0.5885
14594,-0.0389,1.0053,0.0094,0.3369,0.0343,-0.5121
14604,-0.0374,1.0004,0.0155,0.1842,0.0343,-0.5274
14614,-0.0426,1.0021,0.0085,0.0621,-0.0115,-0.5427
14624,-0.0534,1.0034,0.0203,0.0315,-0.0573,-0.4663
14634,-0.0541,1.0029,0.0196,-0.0143,0.0343,-0.3747
14644,-0.0421,1.0036,0.0121,-0.1669,-0.0421,-0.0694
14654,-0.0438,1.0036,0.0126,-0.2280,0.0801,0.0985
14664,-0.0386,1.0000,0.0128,-0.3196,0.0495,0.1596
14674,-0.0377,1.0019,0.0179,-0.4112,0.0801,0.1444
14684,-0.0347,0.9985,0.0247,-0.3196,0.0037,0.0680
14694,-0.0433,1.0056,0.0256,-0.1822,0.0648,-0.0083
14704,-0.0396,1.0036,0.0189,-0.1975,-0.0268,0.1444
14714,-0.0367,1.0017,0.0150,-0.1364,-0.0726,0.2054
14724,-0.0448,1.0026,0.0227,-0.1975,-0.0421,0.1138
14734,-0.0458,0.9973,0.0196,-0.1517,-0.0268,0.2360
14744,-0.0379,0.9987,0.0230,-0.0906,-0.0115,0.3428
14754,-0.0389,1.0031,0.0222,0.0926,0.0343,0.4955
14764,-0.0372,0.9990,0.0239,0.1842,0.0037,0.4955
14774,-0.0320,1.0029,0.0264,0.2911,-0.0268,0.4344
14784,-0.0279,0.9990,0.0196,0.2911,0.0495,0.3428
14794,-0.0330,1.0080,0.0215,0.4590,0.0343,0.0985
14804,-0.0359,1.0039,0.0169,0.5353,0.1106,-0.0541
14814,-0.0335,0.9992,0.0167,0.5811,0.0801,-0.1763
14824,-0.0418,0.9951,0.0104,0.6575,-0.0726,-0.4358
14834,-0.0345,1.0019,0.0172,0.6269,0.0343,-0.4511
14844,-0.0379,1.0007,0.0167,0.6269,0.0037,-0.6037
14854,-0.0345,1.0002,0.0140,0.6269,0.0037,-0.7411
14864,-0.0436,1.0000,0.0087,0.5659,-0.0268,-0.8327
14874,-0.0462,1.0034,0.0208,0.4895,-0.0421,-0.6801
14884,-0.0536,0.9963,0.0145,0.4590,0.0190,-0.4969
14894,-0.0546,0.9990,0.0205,0.4743,0.0495,-0.2526
14904,-0.0543,1.0039,0.0155,0.4132,0.0190,0.0833
14914,-0.0411,0.9990,0.0172,0.3979,-0.0115,0.3428
14924,-0.0396,0.9997,0.0189,0.2758,-0.0268,0.4650
14934,-0.0359,0.9992,0.0147,0.1842,-0.0115,0.5260
14944,-0.0404,0.9960,0.0172,0.1842,-0.0726,0.4955
14954,-0.0480,1.0026,0.0140,0.1689,0.0495,0.4650
14964,-0.0406,1.0007,0.0111,0.1842,0.0037,0.5260
14974,-0.0396,1.0036,0.0133,0.1842,-0.0573,0.6482
14984,-0.0350,1.0019,0.0239,0.1842,-0.0573,0.6482
14994,-0.0308,1.0012,0.0235,0.2300,0.0190,0.5718
15004,-0.0391,1.0004,0.0235,0.3063,0.0343,0.5108
15014,-0.0379,1.0026,0.0203,0.4743,0.1259,0.3581
15024,-0.0359,0.9958,0.0143,0.5659,0.0953,0.3581
15034,-0.0409,1.0024,0.0218,0.6117,0.0343,0.2360
15044,-0.0374,0.9995,0.0147,0.6575,-0.0573,0.2054
15054,-0.0337,1.0036,0.0205,0.5964,-0.0268,0.2512
15064,-0.0323,1.0019,0.0150,0.4590,-0.1031,0.0985
15074,-0.0325,1.0002,0.0126,0.4743,-0.0879,-0.0236
15084,-0.0318,1.0014,0.0169,0.5201,-0.0573,-0.0999
15094,-0.0389,1.0000,0.0254,0.5048,0.0190,-0.2221
15104,-0.0423,0.9987,0.0215,0.5506,-0.0879,-0.2221
15114,-0.0460,1.0014,0.0213,0.7185,0.0037,-0.1457
15124,-0.0389,0.9992,0.0184,0.7033,-0.0268,0.0680
15134,-0.0428,0.9987,0.0128,0.8254,0.0343,0.0375
15144,-0.0404,1.0002,0.0186,0.9018,-0.0726,0.1138
15154,-0.0377,1.0031,0.0150,0.9476,-0.0115,0.0833
15164,-0.0438,1.0039,0.0106,0.8102,-0.0268,0.1444
15174,-0.0377,1.0021,0.0169,0.8407,-0.0573,0.1138
15184,-0.0404,1.0000,0.0094,0.6880,-0.0268,0.1138
15194,-0.0382,0.9995,0.0089,0.6117,-0.0115,0.0985
15204,-0.0379,0.9990,0.0131,0.5811,0.0343,0.1444
15214,-0.0377,0.9992,0.0160,0.5964,-0.0115,0.1138
15224,-0.0411,0.9997,0.0135,0.5048,-0.0268,0.2054
15234,-0.0369,0.9992,0.0205,0.5506,0.0037,0.1902
15244,-0.0335,1.0000,0.0181,0.6269,0.0495,0.1444
15254,-0.0399,0.9992,0.0150,0.6575,0.0037,0.0222
15264,-0.0436,1.0017,0.0075,0.6727,0.0953,0.0680
15274,-0.0394,1.0026,0.0123,0.6575,0.0190,0.1749
15284,-0.0413,0.9990,0.0176,0.6575,-0.0726,0.1291
15294,-0.0404,1.0041,0.0198,0.6880,-0.0573,0.1444
15304,-0.0320,1.0021,0.0099,0.6727,0.0190,0.0985
15314,-0.0269,0.9987,0.0111,0.6117,-0.0573,-0.1152
15324,-0.0421,0.9975,0.0104,0.5811,-0.0421,-0.2068
15334,-0.0421,0.9978,0.0135,0.6422,-0.0115,-0.2679
15344,-0.0497,1.0029,0.0186,0.5506,0.0190,-0.0847
15354,-0.0504,1.0046,0.0106,0.6117,-0.0421,0.0985
15364,-0.0404,0.9992,0.0085,0.6727,-0.0268,0.3734
15374,-0.0382,0.9965,0.0060,0.6117,0.0801,0.3581
15384,-0.0362,1.0036,0.0123,0.4285,0.0495,0.4344
15394,-0.0308,1.0026,0.0031,0.2453,0.0953,0.3428
15404,-0.0379,1.0031,0.0196,0.2758,-0.0726,0.2207
15414,-0.0455,1.0012,0.0131,0.2911,0.0343,0.1596
15424,-0.0377,1.0017,0.0116,0.3521,-0.0115,0.1902
15434,-0.0391,1.0012,0.0147,0.3674,0.0190,0.2665
15444,-0.0372,0.9992,0.0068,0.2911,0.0037,0.2054
15454,-0.0340,0.9982,0.0147,0.2758,0.0037,0.0833
15464,-0.0357,1.0034,0.0160,0.2911,-0.0115,-0.0541
15474,-0.0313,1.0041,0.0082,0.2453,-0.0268,-0.1610
15484,-0.0342,1.0007,0.0087,0.2300,-0.0115,-0.3747
15494,-0.0379,0.9958,0.0169,0.3216,-0.0421,-0.4816
15504,-0.0364,1.0061,0.0167,0.3521,-0.0268,-0.5579
15514,-0.0347,1.0048,0.0097,0.1995,-0.0573,-0.6648
15524,-0.0411,0.9997,0.0104,0.1537,-0.0268,-0.6648
15534,-0.0411,1.0031,0.0160,0.1384,-0.0879,-0.6648
15544,-0.0472,1.0056,0.0133,0.0773,-0.0879,-0.5732
15554,-0.0436,0.9987,0.0085,0.0773,0.0343,-0.3900
15564,-0.0421,1.0048,0.0121,-0.0448,0.0343,-0.2831
15574,-0.0485,0.9992,0.0097,0.0468,0.0343,-0.1152
15584,-0.0477,0.9995,0.0133,-0.0143,0.0037,0.0527
15594,-0.0455,1.0014,0.0128,-0.0143,0.0037,0.2054
15604,-0.0418,0.9985,0.0157,0.0621,0.0190,0.4039
15614,-0.0453,0.9980,0.0152,-0.0295,-0.0421,0.4650
15624,-0.0384,1.0046,0.0196,-0.0753,-0.0115,0.5108
15634,-0.0367,1.0041,0.0138,0.0621,0.0037,0.5718
15644,-0.0352,1.0075,0.0116,0.1231,-0.0115,0.5413
15654,-0.0364,1.0014,0.0094,0.1079,0.0190,0.5260
15664,-0.0264,1.0004,0.0041,0.0773,-0.0421,0.3276
15674,-0.0269,1.0019,0.0094,-0.0601,-0.0421,0.0985
15684,-0.0315,1.0009,0.0203,-0.1517,-0.0573,-0.1457
15694,-0.0440,1.0004,0.0210,-0.0753,-0.0879,-0.2221
15704,-0.0445,1.0021,0.0181,0.0315,-0.0573,-0.1457
15714,-0.0443,1.0004,0.0121,0.1689,-0.0726,-0.0694
15724,-0.0404,0.9963,0.0094,0.2605,-0.0726,0.0833
15734,-0.0411,1.0000,0.0068,0.1231,0.0037,0.0375
15744,-0.0399,1.0039,0.0063,-0.0143,0.0190,0.0222
15754,-0.0411,1.0053,0.0126,0.0163,-0.0268,0.0527
15764,-0.0472,1.0012,0.0155,0.0773,-0.0115,0.0375
15774,-0.0453,1.0007,0.0155,0.2605,0.0037,0.2970
15784,-0.0436,0.9997,0.0145,0.2453,-0.0115,0.4192
15794,-0.0401,1.0029,0.0099,0.2911,0.0495,0.4039
15804,-0.0298,0.9995,0.0094,0.1384,-0.0726,0.4192
15814,-0.0382,0.9992,0.0155,0.0468,-0.0879,0.3123
15824,-0.0325,1.0029,0.0179,0.0010,-0.0115,0.1444
15834,-0.0372,1.0007,0.0092,0.0163,-0.1031,0.0375
15844,-0.0409,1.0034,0.0126,0.0621,-0.0115,-0.0236
15854,-0.0359,1.0012,0.0157,0.0926,-0.0268,0.0527
15864,-0.0418,0.9987,0.0131,0.1231,-0.0268,-0.0541
15874,-0.0382,0.9982,0.0056,0.1384,-0.0115,-0.0236
15884,-0.0350,1.0031,0.0208,0.1995,0.0037,0.0680
15894,-0.0352,1.0021,0.0227,0.2300,0.0037,0.1444
15904,-0.0391,0.9997,0.0126,0.3827,0.0343,0.0527
15914,-0.0406,1.0014,0.0121,0.5353,-0.0421,0.0680
15924,-0.0372,0.9980,0.0072,0.5201,0.0190,0.0222
15934,-0.0359,1.0031,0.0118,0.5048,0.0801,-0.0847
15944,-0.0286,1.0031,0.0111,0.5353,0.0343,-0.2068
15954,-0.0382,1.0053,0.0065,0.5201,0.0190,-0.3747
15964,-0.0377,0.9995,0.0060,0.3369,-0.0726,-0.4511
15974,-0.0364,1.0051,0.0135,0.3827,-0.0421,-0.5732
15984,-0.0440,1.0053,0.0147,0.3521,0.0190,-0.6343
15994,-0.0445,1.0041,0.0193,0.3979,0.0037,-0.6343
16004,-0.0413,1.0026,0.0075,0.4285,-0.0268,-0.4511
16014,-0.0350,1.0029,0.0089,0.3827,0.0343,-0.3137
16024,-0.0355,0.9963,0.0116,0.3521,0.0037,-0.2679
16034,-0.0421,1.0043,0.0014,0.2147,0.0648,-0.2679
16044,-0.0406,1.0021,0.0043,0.0926,0.0343,-0.2068
16054,-0.0438,1.0053,0.0111,0.0468,0.0953,-0.1610
16064,-0.0480,1.0024,0.0193,-0.0601,0.0648,-0.0541
16074,-0.0445,0.9997,0.0157,0.0163,0.0190,0.0985
16084,-0.0418,1.0048,0.0174,0.0621,-0.0115,0.3276
16094,-0.0386,1.0017,0.0118,0.0926,-0.0115,0.3276
16104,-0.0423,1.0068,0.0041,0.0163,0.0648,0.3581
16114,-0.0352,1.0004,0.0167,0.0010,0.0037,0.4344
16124,-0.0438,1.0004,0.0145,-0.0295,-0.0268,0.4344
16134,-0.0394,0.9963,0.0290,0.1231,0.0343,0.3581
16144,-0.0364,1.0017,0.0143,0.1995,0.0495,0.5566
16154,-0.0345,1.0009,0.0087,0.2911,-0.0115,0.4039
16164,-0.0328,0.9990,0.0070,0.3216,0.0495,0.2818
16174,-0.0367,1.0034,0.0140,0.3369,-0.0268,0.1596
16184,-0.0337,0.9995,0.0196,0.5353,0.0190,0.0375
16194,-0.0296,1.0048,0.0116,0.4285,0.0343,-0.0236
16204,-0.0350,1.0021,0.0133,0.5353,-0.0268,-0.0694
16214,-0.0330,0.9968,0.0131,0.6117,-0.0726,-0.0694
16224,-0.0379,0.9992,0.0121,0.6269,0.0495,-0.0236
16234,-0.0345,1.0000,0.0099,0.6727,0.0343,-0.1763
16244,-0.0431,1.0012,0.0150,0.7033,0.0343,-0.2373
16254,-0.0416,0.9973,0.0131,0.6575,-0.0268,-0.1305
16264,-0.0369,0.9997,0.0043,0.5201,0.0495,-0.1457
16274,-0.0328,1.0039,0.0039,0.4590,0.0190,-0.2526
16284,-0.0337,1.0009,0.0014,0.3216,0.1106,-0.4053
16294,-0.0404,1.0019,0.0041,0.1537,0.0495,-0.5274
16304,-0.0485,1.0012,0.0089,0.0773,0.0953,-0.5732
16314,-0.0504,1.0029,0.0193,0.0010,-0.0573,-0.4053
16324,-0.0512,1.0019,0.0094,-0.0295,0.0190,-0.1305
16334,-0.0386,0.9973,-0.0019,0.0468,0.0190,0.0680
16344,-0.0384,1.0024,0.0116,0.0163,0.0037,0.1138
16354,-0.0367,0.9990,-0.0010,-0.1822,-0.0115,0.1138
16364,-0.0355,0.9980,0.0101,-0.3960,0.0190,0.0527
16374,-0.0372,0.9997,0.0189,-0.3654,-0.0268,-0.1152
16384,-0.0460,1.0046,0.0080,-0.3807,-0.0879,-0.0083
16394,-0.0477,1.0007,0.0201,-0.3960,-0.0573,0.0527
16404,-0.0465,1.0041,0.0189,-0.3807,-0.0115,0.2512
16414,-0.0455,1.0002,0.0205,-0.2127,-0.0421,0.4802
16424,-0.0391,1.0012,0.0150,-0.1975,0.0495,0.5413
16434,-0.0340,0.9982,0.0111,-0.1364,0.1106,0.5871
16444,-0.0367,1.0026,0.0189,-0.1975,0.0953,0.5108
16454,-0.0286,1.0021,0.0128,-0.1822,0.0495,0.3123
16464,-0.0345,0.9995,0.0138,-0.1517,0.0343,0.1444
16474,-0.0342,1.0017,0.0157,-0.1975,-0.0573,0.0069
16484,-0.0377,0.9987,0.0092,-0.1975,-0.0573,-0.2068
16494,-0.0458,1.0024,0.0155,-0.1059,0.0190,-0.2221
16504,-0.0453,0.9973,0.0213,0.0010,0.0343,-0.1152
16514,-0.0399,1.0009,0.0092,0.1689,0.0037,0.1444
16524,-0.0342,1.0031,0.0099,0.3216,0.0648,0.1902
16534,-0.0283,1.0051,0.0147,0.3521,0.0190,0.1902
