timestamp_ms,ax,ay,az,gx,gy,gz
3964,-0.0276,-0.0725,-1.0036,-0.1760,-0.4603,-0.0254
3974,-0.0345,-0.0760,-1.0123,-0.0997,-0.7809,-0.2239
3984,-0.0318,-0.0704,-1.0040,-0.1150,-0.5214,-0.0407
3994,-0.0355,-0.0694,-1.0014,-0.0539,-0.1550,-0.1170
4004,-0.0288,-0.0769,-1.0050,-0.0386,0.0435,-0.0407
4014,-0.0359,-0.0765,-1.0128,-0.0692,-0.0023,-0.0254
4024,-0.0333,-0.0806,-0.9956,-0.1455,0.0893,0.1883
4034,-0.0325,-0.0667,-1.0016,-0.1760,-0.0176,0.2494
4044,-0.0318,-0.0755,-1.0028,-0.1760,-0.1702,0.2494
4054,-0.0367,-0.0777,-1.0084,-0.0081,-0.0481,0.2494
4064,-0.0279,-0.0708,-1.0089,-0.0081,0.0435,0.1120
4074,-0.0340,-0.0755,-1.0026,0.1140,0.4405,-0.1628
4084,-0.0315,-0.0733,-1.0062,0.2056,0.8527,-0.0407
4094,-0.0335,-0.0745,-1.0036,0.2056,1.0359,0.1273
4104,-0.0274,-0.0767,-1.0062,0.2209,1.0053,0.0356
4114,-0.0254,-0.0725,-1.0036,0.0682,1.0053,0.3257
4124,-0.0423,-0.0725,-1.0028,-0.0844,0.6542,0.2494
4134,-0.0075,-0.0772,-1.0009,-0.2524,0.1198,0.2494
4144,-0.0234,-0.0716,-1.0065,-0.2524,-0.1855,-0.1476
4154,-0.0342,-0.0757,-0.9946,-0.0692,-0.0328,-0.2697
4164,-0.0264,-0.0728,-1.0053,-0.0081,0.3947,-0.1476
4174,-0.0301,-0.0733,-1.0062,0.0835,0.5473,-0.2544
4184,-0.0276,-0.0733,-1.0060,0.1904,0.5473,-0.2392
4194,-0.0313,-0.0796,-1.0033,0.1904,0.4099,-0.2544
4204,-0.0320,-0.0716,-1.0007,0.1904,0.4099,-0.1934
4214,-0.0276,-0.0750,-1.0048,0.0530,0.3183,-0.1476
4224,-0.0291,-0.0772,-1.0024,-0.0234,0.3641,-0.0560
4234,-0.0256,-0.0755,-1.0103,0.1293,0.4252,0.0509
4244,-0.0256,-0.0686,-1.0011,0.2515,0.5015,-0.0712
4254,-0.0335,-0.0699,-1.0067,0.3278,0.5626,-0.2239
4264,-0.0291,-0.0755,-1.0050,0.4347,0.7305,-0.3002
4274,-0.0315,-0.0782,-1.0026,0.5110,0.9595,-0.2239
4284,-0.0291,-0.0784,-1.0021,0.4347,1.2344,-0.1628
4294,-0.0264,-0.0730,-1.0072,0.3889,1.3260,-0.0254
4304,-0.0274,-0.0686,-1.0176,0.2056,1.0664,0.0662
4314,-0.0256,-0.0816,-1.0086,-0.0081,0.6695,0.0051
4324,-0.0296,-0.0747,-1.0096,-0.2524,0.2420,-0.1934
4334,-0.0261,-0.0799,-1.0053,-0.3287,0.0130,-0.1476
4344,-0.0259,-0.0765,-1.0048,-0.4050,-0.1550,-0.1934
4354,-0.0234,-0.0730,-1.0069,-0.4661,-0.1855,-0.1628
4364,-0.0271,-0.0801,-1.0004,-0.4203,-0.1855,-0.2086
4374,-0.0298,-0.0784,-1.0028,-0.3592,-0.1244,-0.2544
4384,-0.0261,-0.0784,-1.0057,-0.2676,-0.0328,-0.1628
4394,-0.0266,-0.0769,-1.0077,-0.1455,0.2420,-0.0254
4404,-0.0261,-0.0757,-1.0082,0.0682,0.4405,-0.0865
4414,-0.0276,-0.0799,-1.0038,0.1598,0.6542,-0.1170
4424,-0.0256,-0.0725,-1.0038,0.1598,0.7916,0.0509
4434,-0.0276,-0.0745,-1.0077,0.4041,0.9137,-0.0560
4444,-0.0310,-0.0760,-1.0045,0.4652,0.8069,0.0051
4454,-0.0259,-0.0794,-1.0021,0.3736,0.5168,0.0204
4464,-0.0288,-0.0716,-1.0082,0.0988,0.0130,-0.0712
4474,-0.0269,-0.0789,-1.0069,-0.0539,-0.6130,-0.0407
4484,-0.0276,-0.0767,-1.0065,-0.2371,-1.2847,-0.1170
4494,-0.0244,-0.0806,-1.0026,-0.2371,-1.5137,-0.0254
4504,-0.0296,-0.0806,-1.0053,-0.2524,-1.4221,-0.0865
4514,-0.0261,-0.0828,-1.0004,-0.2524,-0.9641,0.0509
4524,-0.0212,-0.0779,-1.0028,-0.1913,-0.6588,0.0815
4534,-0.0244,-0.0816,-1.0019,-0.2371,-0.5977,-0.1170
4544,-0.0271,-0.0811,-1.0043,-0.2066,-0.5977,-0.1018
4554,-0.0244,-0.0777,-0.9963,-0.0386,-0.1397,-0.0560
4564,-0.0347,-0.0777,-0.9968,0.1446,0.3336,-0.0865
4574,-0.0318,-0.0772,-1.0067,0.3125,0.8069,-0.0865
4584,-0.0195,-0.0760,-1.0048,0.3431,0.8527,0.0509
4594,-0.0286,-0.0745,-1.0077,0.1904,0.7458,-0.0254
4604,-0.0234,-0.0789,-1.0069,0.1293,0.4252,0.0051
4614,-0.0239,-0.0750,-1.0053,-0.1302,-0.1397,-0.0560
4624,-0.0252,-0.0738,-1.0079,-0.3745,-0.8420,-0.0712
4634,-0.0252,-0.0769,-1.0065,-0.5424,-1.2695,-0.0407
4644,-0.0281,-0.0833,-1.0115,-0.7256,-1.3763,-0.1018
4654,-0.0237,-0.0804,-1.0038,-0.8783,-1.2389,-0.1170
4664,-0.0291,-0.0779,-0.9958,-0.7867,-0.5366,-0.2392
4674,-0.0269,-0.0786,-1.0004,-0.6951,0.3031,-0.1934
4684,-0.0318,-0.0779,-1.0096,-0.5424,0.8985,-0.1018
4694,-0.0261,-0.0784,-1.0040,-0.5577,1.1427,-0.0254
4704,-0.0291,-0.0716,-1.0111,-0.6493,0.8832,-0.1018
4714,-0.0217,-0.0696,-1.0057,-0.7715,0.3794,-0.0712
4724,-0.0237,-0.0735,-1.0055,-0.7867,-0.0176,-0.2239
4734,-0.0328,-0.0716,-1.0069,-0.6951,-0.4298,-0.2697
4744,-0.0244,-0.0743,-0.9992,-0.6493,-0.5061,-0.2086
4754,-0.0303,-0.0769,-1.0077,-0.5424,-0.3840,-0.1781
4764,-0.0308,-0.0779,-1.0004,-0.5882,-0.3687,-0.1170
4774,-0.0318,-0.0762,-1.0019,-0.6035,-0.0176,-0.0560
4784,-0.0215,-0.0745,-1.0019,-0.4508,-0.0481,0.0204
4794,-0.0274,-0.0757,-1.0067,-0.4356,-0.2160,-0.0407
4804,-0.0274,-0.0752,-1.0074,-0.3287,-0.3992,-0.0560
4814,-0.0298,-0.0728,-1.0038,-0.2829,-0.4603,-0.1628
4824,-0.0244,-0.0755,-1.0043,-0.2676,-0.4145,-0.2086
4834,-0.0254,-0.0796,-1.0060,-0.0081,-0.2618,-0.1628
4844,-0.0269,-0.0811,-1.0031,0.2209,0.0893,-0.0254
4854,-0.0239,-0.0811,-1.0057,0.4652,0.3183,0.0051
4864,-0.0269,-0.0786,-1.0074,0.5721,0.5015,-0.0560
4874,-0.0274,-0.0823,-1.0115,0.5568,0.5321,-0.1476
4884,-0.0229,-0.0769,-0.9985,0.5110,0.6237,0.0204
4894,-0.0252,-0.0725,-1.0021,0.4347,0.7458,0.0967
4904,-0.0293,-0.0750,-1.0019,0.3736,0.5168,0.1120
4914,-0.0328,-0.0743,-1.0125,0.2209,0.2267,-0.0712
4924,-0.0247,-0.0813,-1.0084,0.1293,0.0893,-0.0102
4934,-0.0306,-0.0838,-1.0096,-0.0539,0.0435,-0.1628
4944,-0.0283,-0.0721,-1.0002,-0.3134,0.0130,-0.1628
4954,-0.0227,-0.0786,-1.0024,-0.4356,-0.1092,-0.1323
4964,-0.0254,-0.0789,-1.0111,-0.5272,-0.3076,-0.0254
4974,-0.0242,-0.0767,-1.0011,-0.5882,-0.3534,0.1425
4984,-0.0276,-0.0733,-1.0140,-0.4814,-0.6435,0.1120
4994,-0.0261,-0.0779,-1.0084,-0.5424,-0.7809,0.0051
5004,-0.0229,-0.0796,-1.0028,-0.5119,-0.7351,0.0051
5014,-0.0283,-0.0794,-1.0045,-0.6035,-0.5214,0.1273
5024,-0.0288,-0.0765,-1.0021,-0.5424,-0.4298,-0.0254
5034,-0.0271,-0.0762,-1.0069,-0.5882,-0.3992,0.0815
5044,-0.0271,-0.0750,-1.0057,-0.5424,-0.4603,0.0051
5054,-0.0256,-0.0752,-0.9997,-0.3745,-0.3229,-0.0560
5064,-0.0161,-0.0765,-1.0089,-0.4203,-0.3534,0.0204
5074,-0.0384,-0.0657,-1.0120,-0.3745,-0.2313,-0.1323
5084,-0.0220,-0.0806,-1.0130,-0.5272,-0.3229,-0.0254
5094,-0.0215,-0.0743,-1.0186,-0.6646,-0.4756,-0.3308
5104,-0.0325,-0.0672,-1.0118,-0.6188,-0.4603,-0.2544
5114,-0.0281,-0.0801,-1.0065,-0.5882,-0.2466,-0.1934
5124,-0.0359,-0.0794,-1.0106,-0.4356,0.1962,-0.1323
5134,-0.0279,-0.0779,-1.0101,-0.3134,0.5779,0.1883
5144,-0.0318,-0.0769,-1.0043,-0.3134,0.6542,0.1883
5154,-0.0313,-0.0745,-0.9995,-0.3287,0.3641,0.2647
5164,-0.0244,-0.0611,-1.0091,-0.2371,-0.1855,0.2647
5174,-0.0298,-0.0725,-1.0057,-0.3592,-1.0405,-0.0407
5184,-0.0229,-0.0806,-1.0084,-0.4661,-1.3305,0.0967
5194,-0.0252,-0.0708,-1.0082,-0.5882,-1.2695,0.1578
5204,-0.0286,-0.0786,-1.0043,-0.5272,-1.0099,0.1120
5214,-0.0293,-0.0811,-0.9995,-0.5119,-0.3840,0.2189
5224,-0.0281,-0.0794,-0.9982,-0.3745,0.0588,0.1883
5234,-0.0276,-0.0721,-1.0053,-0.3745,0.2115,0.1883
5244,-0.0252,-0.0752,-1.0021,-0.4203,-0.0328,0.1578
5254,-0.0283,-0.0706,-1.0060,-0.4050,-0.4603,0.0662
5264,-0.0291,-0.0769,-0.9995,-0.4661,-0.8420,-0.0865
5274,-0.0288,-0.0760,-1.0086,-0.4814,-1.0252,0.0051
5284,-0.0225,-0.0750,-1.0038,-0.5577,-0.8573,0.0662
5294,-0.0296,-0.0765,-1.0040,-0.5119,-0.7351,0.0509
5304,-0.0252,-0.0760,-1.0026,-0.5577,-0.7046,0.0051
5314,-0.0291,-0.0779,-1.0077,-0.5272,-0.6588,-0.0865
5324,-0.0288,-0.0791,-1.0072,-0.4814,-0.5366,0.0051
5334,-0.0345,-0.0774,-1.0074,-0.5730,-0.5672,0.0051
5344,-0.0237,-0.0728,-1.0062,-0.5577,-0.5366,0.2036
5354,-0.0247,-0.0686,-1.0038,-0.7256,-0.9031,0.2952
5364,-0.0269,-0.0762,-1.0024,-0.8325,-1.1931,0.2189
5374,-0.0266,-0.0760,-1.0043,-0.7104,-1.2237,0.0662
5384,-0.0298,-0.0816,-1.0086,-0.6188,-0.7504,-0.0865
5394,-0.0286,-0.0762,-1.0033,-0.4508,-0.1550,-0.0865
5404,-0.0323,-0.0725,-1.0002,-0.1913,0.4099,-0.1170
5414,-0.0276,-0.0769,-1.0031,0.0530,0.6389,0.0662
5424,-0.0242,-0.0738,-1.0074,0.2056,0.7153,0.0967
5434,-0.0288,-0.0750,-1.0050,0.2667,0.6389,0.0509
5444,-0.0308,-0.0728,-1.0067,0.3736,0.4557,0.0967
5454,-0.0276,-0.0738,-1.0091,0.3125,0.0282,0.0662
5464,-0.0269,-0.0706,-1.0074,0.2973,-0.1855,0.0356
5474,-0.0288,-0.0706,-1.0050,0.2667,-0.3229,0.0509
5484,-0.0296,-0.0762,-1.0055,0.2515,-0.4298,0.0509
5494,-0.0298,-0.0779,-1.0147,0.0377,-0.4450,0.2189
5504,-0.0190,-0.0779,-1.0108,-0.0234,-0.4908,0.1578
5514,-0.0252,-0.0818,-1.0072,-0.1302,-0.6130,0.1273
5524,-0.0271,-0.0794,-1.0024,-0.2982,-0.5824,0.0204
5534,-0.0256,-0.0799,-1.0060,-0.4508,-0.4603,0.0509
5544,-0.0266,-0.0735,-1.0043,-0.4966,-0.3840,-0.0254
5554,-0.0320,-0.0808,-1.0086,-0.4814,-0.3534,-0.1323
5564,-0.0328,-0.0767,-1.0031,-0.5424,-0.3382,0.0051
5574,-0.0301,-0.0767,-1.0055,-0.4814,-0.2924,0.1120
5584,-0.0283,-0.0801,-1.0082,-0.6493,-0.2924,0.1120
5594,-0.0244,-0.0872,-1.0096,-0.5882,-0.1702,0.2799
5604,-0.0256,-0.0757,-1.0021,-0.4661,-0.2771,0.2341
5614,-0.0328,-0.0745,-1.0084,-0.3592,-0.2160,0.0204
5624,-0.0237,-0.0723,-1.0113,-0.3134,-0.3534,-0.1018
5634,-0.0320,-0.0745,-1.0106,-0.2829,-0.6130,-0.3613
5644,-0.0306,-0.0784,-1.0007,-0.3134,-0.5366,-0.2392
5654,-0.0293,-0.0743,-1.0067,-0.2982,-0.4908,-0.1781
5664,-0.0325,-0.0794,-1.0055,-0.3898,-0.2008,-0.1934
5674,-0.0291,-0.0769,-1.0060,-0.3287,-0.0328,-0.1323
5684,-0.0335,-0.0818,-1.0021,-0.2676,0.1046,-0.1018
5694,-0.0274,-0.0769,-1.0108,-0.1913,-0.0634,-0.0560
5704,-0.0306,-0.0740,-1.0118,-0.1760,-0.2313,-0.0712
5714,-0.0313,-0.0769,-1.0043,-0.0386,-0.2008,-0.1476
5724,-0.0279,-0.0777,-0.9990,0.2362,0.2420,-0.1170
5734,-0.0225,-0.0838,-1.0045,0.2515,0.4557,-0.0560
5744,-0.0310,-0.0777,-1.0062,0.3278,0.8069,-0.0102
5754,-0.0261,-0.0762,-1.0086,0.3583,1.0511,0.1273
5764,-0.0269,-0.0777,-1.0024,0.4805,1.0511,-0.0102
5774,-0.0256,-0.0730,-1.0082,0.3125,0.8985,0.0509
5784,-0.0315,-0.0740,-1.0106,0.3278,0.6084,-0.0560
5794,-0.0274,-0.0694,-1.0113,0.1446,0.3489,-0.0407
5804,-0.0274,-0.0743,-1.0113,-0.0539,-0.0939,-0.3155
5814,-0.0269,-0.0730,-1.0050,-0.1913,-0.4145,-0.4682
5824,-0.0303,-0.0777,-1.0062,-0.2829,-0.4603,-0.5445
5834,-0.0269,-0.0826,-1.0043,-0.4203,-0.3687,-0.5750
5844,-0.0283,-0.0811,-1.0040,-0.3898,-0.3076,-0.5445
5854,-0.0342,-0.0765,-1.0050,-0.2676,-0.0176,-0.4834
5864,-0.0313,-0.0816,-1.0060,-0.1608,0.2573,-0.1628
5874,-0.0225,-0.0708,-0.9990,0.0377,0.5015,0.0509
5884,-0.0264,-0.0752,-1.0077,0.1293,0.4405,-0.0254
5894,-0.0301,-0.0765,-1.0040,0.0682,0.5015,-0.2697
5904,-0.0308,-0.0755,-1.0011,0.0530,0.5473,-0.1018
5914,-0.0310,-0.0772,-1.0055,0.1140,0.5015,-0.1018
5924,-0.0293,-0.0799,-1.0048,-0.0692,0.3794,-0.1476
5934,-0.0229,-0.0765,-1.0077,-0.1302,0.4710,0.0051
5944,-0.0303,-0.0718,-1.0074,-0.2676,0.3794,-0.0712
5954,-0.0264,-0.0774,-1.0040,-0.2676,0.1046,-0.1476
5964,-0.0274,-0.0747,-1.0113,-0.3287,-0.1397,-0.1628
5974,-0.0266,-0.0779,-1.0101,-0.4966,-0.3076,-0.2086
5984,-0.0296,-0.0728,-1.0108,-0.5424,-0.3229,-0.1476
5994,-0.0274,-0.0777,-1.0099,-0.6493,-0.2924,-0.0407
6004,-0.0286,-0.0801,-0.9992,-0.6798,-0.2466,-0.1476
6014,-0.0276,-0.0821,-1.0053,-0.6493,-0.0939,-0.1323
6024,-0.0261,-0.0755,-1.0079,-0.5424,-0.0176,-0.0254
6034,-0.0200,-0.0752,-1.0036,-0.4203,-0.1244,-0.0407
6044,-0.0261,-0.0772,-1.0043,-0.3898,-0.2924,-0.2850
6054,-0.0298,-0.0816,-0.9999,-0.4050,-0.1244,-0.3155
6064,-0.0271,-0.0760,-1.0038,-0.3440,0.1351,-0.3155
6074,-0.0283,-0.0750,-1.0113,-0.2982,0.2267,-0.3308
6084,-0.0279,-0.0747,-1.0021,-0.2676,0.3183,-0.1476
6094,-0.0215,-0.0723,-1.0004,-0.2676,0.2573,0.0051
6104,-0.0283,-0.0721,-1.0074,-0.2218,-0.0634,-0.0865
6114,-0.0313,-0.0745,-0.9997,-0.2829,-0.6435,-0.1781
6124,-0.0308,-0.0725,-1.0004,-0.2218,-0.7656,-0.0407
6134,-0.0291,-0.0752,-0.9987,-0.2982,-0.8267,-0.0407
6144,-0.0252,-0.0755,-1.0096,-0.2676,-0.8420,-0.0560
6154,-0.0328,-0.0733,-1.0050,-0.3745,-0.5977,-0.0865
6164,-0.0269,-0.0779,-1.0120,-0.5272,-0.5977,0.0204
6174,-0.0256,-0.0779,-1.0077,-0.7104,-0.9031,-0.0407
6184,-0.0283,-0.0811,-1.0086,-0.8783,-1.1473,-0.1018
6194,-0.0229,-0.0784,-1.0036,-0.9547,-1.1473,-0.1476
6204,-0.0310,-0.0774,-1.0043,-0.8631,-0.8115,-0.1934
6214,-0.0291,-0.0782,-1.0019,-0.6951,-0.5672,-0.0712
6224,-0.0232,-0.0721,-1.0086,-0.5882,-0.2466,-0.1323
6234,-0.0259,-0.0791,-1.0033,-0.4203,-0.3076,-0.1018
6244,-0.0291,-0.0745,-0.9992,-0.3287,-0.1092,-0.0102
6254,-0.0274,-0.0718,-1.0091,-0.2982,-0.0634,0.0356
6264,-0.0279,-0.0733,-1.0026,-0.2982,-0.1397,-0.0407
6274,-0.0308,-0.0728,-1.0014,-0.3592,-0.0786,-0.0407
6284,-0.0298,-0.0686,-1.0099,-0.4203,-0.1244,-0.0407
6294,-0.0276,-0.0733,-1.0007,-0.3898,-0.3382,-0.0560
6304,-0.0237,-0.0733,-1.0009,-0.4814,-0.4756,0.0356
6314,-0.0320,-0.0774,-1.0120,-0.5272,-0.4145,-0.0865
6324,-0.0301,-0.0750,-1.0091,-0.4661,-0.2618,-0.1018
6334,-0.0239,-0.0706,-0.9990,-0.5119,0.0282,-0.2239
6344,-0.0313,-0.0772,-1.0043,-0.4966,0.1351,-0.1476
6354,-0.0252,-0.0796,-1.0016,-0.4508,0.0588,-0.1170
6364,-0.0252,-0.0760,-1.0050,-0.6035,-0.1702,-0.2544
6374,-0.0313,-0.0789,-1.0113,-0.4966,-0.3534,-0.1781
6384,-0.0274,-0.0779,-1.0019,-0.4814,-0.3687,-0.1018
6394,-0.0291,-0.0767,-1.0045,-0.4356,-0.3534,-0.0407
6404,-0.0281,-0.0774,-1.0082,-0.3287,-0.0786,0.1425
6414,-0.0109,-0.0728,-1.0036,-0.2218,0.3794,0.5547
6424,-0.0276,-0.0701,-0.9990,-0.2371,0.1656,0.2952
6434,-0.0340,-0.0716,-1.0120,-0.3134,-0.1702,0.1120
6444,-0.0247,-0.0745,-1.0077,-0.3287,-0.4450,0.2799
6454,-0.0259,-0.0733,-1.0048,-0.3898,-0.7962,0.1273
6464,-0.0303,-0.0760,-1.0014,-0.4356,-0.9947,0.0509
6474,-0.0330,-0.0723,-0.9992,-0.1455,-0.8573,-0.0254
6484,-0.0325,-0.0762,-1.0038,0.0224,-0.4450,-0.0560
6494,-0.0315,-0.0765,-1.0036,0.0530,-0.0481,-0.0102
6504,-0.0328,-0.0735,-1.0067,0.0072,0.2115,-0.1170
6514,-0.0320,-0.0833,-1.0169,-0.0844,0.3641,-0.1781
6524,-0.0281,-0.0743,-1.0021,0.0835,0.4252,-0.0712
6534,-0.0269,-0.0816,-1.0009,0.1293,0.4863,-0.0865
6544,-0.0310,-0.0740,-1.0055,0.2362,0.6847,-0.0407
6554,-0.0244,-0.0733,-1.0021,0.4041,0.6695,0.0204
6564,-0.0320,-0.0767,-0.9999,0.4347,0.6847,0.0356
6574,-0.0264,-0.0740,-1.0101,0.4805,0.6542,0.0815
6584,-0.0271,-0.0752,-1.0062,0.4957,0.6237,0.0051
6594,-0.0261,-0.0728,-1.0089,0.4041,0.5321,-0.0254
6604,-0.0232,-0.0733,-1.0103,0.2973,0.5931,-0.0865
6614,-0.0306,-0.0760,-1.0057,0.1598,0.4405,-0.2239
6624,-0.0256,-0.0760,-0.9997,0.1446,0.5015,-0.2544
6634,-0.0293,-0.0784,-1.0038,0.1140,0.7153,-0.1476
6644,-0.0264,-0.0762,-1.0053,-0.0081,0.4405,-0.1476
6654,-0.0296,-0.0713,-1.0077,-0.1150,-0.0176,-0.1170
6664,-0.0340,-0.0740,-0.9958,-0.1760,-0.4603,-0.1934
6674,-0.0264,-0.0762,-1.0053,-0.1913,-0.8267,-0.0560
6684,-0.0264,-0.0774,-1.0077,-0.2371,-1.0099,-0.0254
6694,-0.0279,-0.0762,-1.0053,-0.2524,-0.9947,0.0815
6704,-0.0328,-0.0811,-1.0011,-0.2829,-0.7809,0.0967
6714,-0.0291,-0.0750,-1.0055,-0.2524,-0.4298,-0.0254
6724,-0.0239,-0.0791,-1.0045,-0.2371,0.1198,0.0967
6734,-0.0315,-0.0804,-1.0062,-0.1608,0.7458,0.0509
6744,-0.0276,-0.0750,-1.0094,-0.0386,1.1427,0.0815
6754,-0.0301,-0.0728,-1.0057,-0.0081,1.4176,0.0967
6764,-0.0203,-0.0740,-1.0057,-0.0234,1.3107,0.0967
6774,-0.0315,-0.0772,-1.0084,-0.0539,0.8832,-0.1628
6784,-0.0276,-0.0757,-1.0074,0.0072,0.7916,-0.1476
6794,-0.0318,-0.0786,-1.0009,0.0072,0.8069,-0.0102
6804,-0.0301,-0.0728,-1.0065,0.2056,1.0359,0.0204
6814,-0.0279,-0.0728,-1.0120,0.2362,1.0664,0.1578
6824,-0.0269,-0.0808,-1.0060,0.2667,0.7458,0.0967
6834,-0.0232,-0.0801,-1.0057,0.1904,0.3489,0.0662
6844,-0.0225,-0.0721,-1.0130,0.2056,0.0130,0.0662
6854,-0.0249,-0.0774,-1.0072,0.2056,-0.3992,-0.0254
6864,-0.0239,-0.0755,-1.0040,0.2667,-0.3992,-0.0712
6874,-0.0229,-0.0743,-1.0099,0.4041,-0.1092,-0.1018
6884,-0.0193,-0.0794,-1.0021,0.4957,-0.0023,-0.1934
6894,-0.0310,-0.0762,-1.0062,0.4805,0.3031,-0.1781
6904,-0.0242,-0.0806,-1.0094,0.4499,0.5321,-0.0712
6914,-0.0401,-0.0799,-1.0091,0.1598,0.4405,-0.0407
6924,-0.0114,-0.0833,-1.0021,-0.0692,0.2267,0.4326
6934,-0.0264,-0.0708,-1.0096,-0.1913,-0.0786,0.1883
6944,-0.0239,-0.0818,-1.0099,-0.3898,-0.4756,0.0662
6954,-0.0229,-0.0728,-1.0086,-0.5424,-1.1015,0.0662
6964,-0.0293,-0.0777,-1.0067,-0.8020,-1.6053,-0.1323
6974,-0.0283,-0.0801,-0.9999,-0.8631,-1.6817,-0.2086
6984,-0.0269,-0.0757,-1.0050,-0.7562,-1.3000,-0.2086
6994,-0.0264,-0.0786,-1.0019,-0.5882,-0.6282,-0.3002
7004,-0.0298,-0.0767,-1.0009,-0.4508,0.0282,-0.1170
7014,-0.0252,-0.0757,-1.0099,-0.4356,0.1351,-0.0254
7024,-0.0266,-0.0767,-1.0043,-0.5424,0.0588,0.0051
7034,-0.0288,-0.0735,-1.0050,-0.8478,-0.2771,0.0815
7044,-0.0276,-0.0745,-1.0019,-1.0615,-0.8267,0.0509
7054,-0.0244,-0.0791,-1.0091,-1.2600,-1.4221,0.0356
7064,-0.0256,-0.0772,-1.0067,-1.3211,-1.5901,-0.0560
7074,-0.0293,-0.0823,-1.0004,-1.2753,-1.4832,-0.2239
7084,-0.0261,-0.0777,-0.9997,-0.8783,-0.8725,-0.2239
7094,-0.0254,-0.0713,-1.0021,-0.5730,-0.2313,-0.1934
7104,-0.0315,-0.0730,-1.0101,-0.3440,0.0740,-0.1934
7114,-0.0234,-0.0769,-1.0067,-0.2676,0.0282,-0.1934
7124,-0.0283,-0.0728,-1.0026,-0.2676,-0.3076,-0.3155
7134,-0.0269,-0.0711,-1.0031,-0.2676,-0.4603,-0.3766
7144,-0.0283,-0.0772,-1.0060,-0.1760,-0.3840,-0.2850
7154,-0.0269,-0.0765,-1.0033,0.0682,0.1351,-0.1476
7164,-0.0234,-0.0740,-1.0002,0.1751,0.5779,-0.0254
7174,-0.0283,-0.0757,-1.0096,0.3278,0.6847,-0.0254
7184,-0.0244,-0.0738,-1.0130,0.1904,0.4099,0.1425
7194,-0.0222,-0.0733,-1.0050,-0.1455,-0.1092,0.0662
7204,-0.0296,-0.0769,-1.0072,-0.4356,-0.7046,-0.0407
7214,-0.0281,-0.0745,-1.0045,-0.7562,-1.0863,-0.1781
7224,-0.0308,-0.0745,-1.0082,-1.0005,-1.4069,-0.3460
7234,-0.0286,-0.0774,-1.0053,-1.0310,-1.4374,-0.3308
7244,-0.0283,-0.0804,-1.0048,-1.0921,-1.1626,-0.2544
7254,-0.0325,-0.0769,-1.0026,-0.8783,-0.7962,-0.0407
7264,-0.0254,-0.0743,-1.0072,-0.7562,-0.5214,-0.0407
7274,-0.0247,-0.0791,-1.0009,-0.6188,-0.3992,-0.1170
7284,-0.0229,-0.0823,-1.0065,-0.4356,-0.3229,-0.0712
7294,-0.0261,-0.0769,-1.0123,-0.5272,-0.4145,-0.2544
7304,-0.0252,-0.0723,-1.0036,-0.6340,-0.4908,-0.2239
7314,-0.0308,-0.0777,-0.9992,-0.5730,-0.5061,-0.2697
7324,-0.0298,-0.0757,-1.0031,-0.5272,-0.3534,-0.2086
7334,-0.0318,-0.0772,-1.0077,-0.4814,-0.2466,-0.1170
7344,-0.0288,-0.0789,-1.0040,-0.5424,-0.0939,-0.1018
7354,-0.0283,-0.0672,-1.0009,-0.4966,0.0282,-0.0407
7364,-0.0249,-0.0752,-1.0016,-0.4356,-0.3076,-0.1018
7374,-0.0323,-0.0740,-0.9997,-0.5119,-0.7504,-0.1323
7384,-0.0308,-0.0747,-1.0074,-0.4814,-1.0863,-0.0407
7394,-0.0313,-0.0743,-1.0019,-0.3592,-1.0710,-0.0407
7404,-0.0274,-0.0743,-1.0045,-0.2829,-0.8115,-0.0254
7414,-0.0276,-0.0760,-1.0026,-0.2218,-0.4908,-0.0102
7424,-0.0271,-0.0767,-1.0067,-0.2371,-0.3076,-0.0407
7434,-0.0234,-0.0784,-1.0106,-0.2371,-0.2771,0.0051
7444,-0.0318,-0.0772,-1.0043,-0.2829,-0.4145,-0.1323
7454,-0.0283,-0.0743,-1.0026,-0.4661,-0.4603,-0.1934
7464,-0.0328,-0.0789,-1.0062,-0.4508,-0.3076,-0.1781
7474,-0.0318,-0.0772,-1.0026,-0.3592,-0.1550,-0.1018
7484,-0.0266,-0.0745,-0.9995,-0.3440,0.0893,-0.0865
7494,-0.0286,-0.0782,-1.0040,-0.2066,0.4710,-0.1476
7504,-0.0313,-0.0718,-1.0060,-0.0692,0.7153,-0.2239
7514,-0.0269,-0.0733,-1.0079,0.1446,0.8527,-0.1628
7524,-0.0335,-0.0733,-1.0057,0.1751,0.8679,-0.1781
7534,-0.0281,-0.0704,-1.0048,0.1751,0.5473,-0.0254
7544,-0.0274,-0.0750,-1.0067,0.1446,0.1962,-0.0560
7554,-0.0303,-0.0723,-1.0137,0.2056,-0.1244,-0.1170
7564,-0.0252,-0.0747,-1.0072,-0.0539,-0.4756,-0.0712
7574,-0.0283,-0.0762,-1.0033,-0.0997,-0.5519,-0.1934
7584,-0.0296,-0.0738,-0.9997,-0.0692,-0.4298,-0.0865
7594,-0.0256,-0.0774,-1.0031,-0.1455,-0.1550,-0.0407
7604,-0.0261,-0.0784,-1.0009,0.0072,0.1504,-0.0407
7614,-0.0279,-0.0750,-1.0079,0.0988,0.4863,-0.0254
7624,-0.0279,-0.0782,-1.0036,0.1140,0.8527,-0.0560
7634,-0.0271,-0.0804,-1.0055,0.1598,1.0206,-0.1018
7644,-0.0264,-0.0750,-1.0062,0.0682,0.9901,-0.0407
7654,-0.0340,-0.0765,-1.0019,-0.0539,0.7305,-0.2086
7664,-0.0288,-0.0808,-1.0045,-0.1608,0.6542,-0.1170
7674,-0.0254,-0.0760,-1.0021,-0.2676,0.6542,-0.0712
7684,-0.0296,-0.0765,-0.9973,-0.1455,0.6084,0.0051
7694,-0.0323,-0.0750,-1.0079,0.0072,0.6389,-0.0407
7704,-0.0244,-0.0767,-1.0045,0.0530,0.5473,-0.0560
7714,-0.0256,-0.0728,-1.0077,-0.1150,0.1351,-0.0560
7724,-0.0274,-0.0779,-1.0069,-0.3592,-0.4908,-0.0254
7734,-0.0301,-0.0769,-1.0096,-0.6798,-1.1473,-0.0407
7744,-0.0227,-0.0752,-1.0028,-0.7715,-1.6969,0.0815
7754,-0.0256,-0.0745,-1.0038,-0.9089,-1.8496,-0.1170
7764,-0.0306,-0.0789,-0.9961,-1.0005,-1.9565,-0.1170
7774,-0.0254,-0.0769,-1.0021,-1.0005,-1.4679,-0.1170
7784,-0.0271,-0.0723,-1.0062,-0.9547,-0.9489,0.0204
7794,-0.0303,-0.0791,-1.0002,-0.9089,-0.6282,0.0815
7804,-0.0256,-0.0750,-0.9987,-0.8478,-0.2466,0.1731
7814,-0.0264,-0.0704,-1.0016,-0.8020,-0.1855,0.1120
7824,-0.0286,-0.0723,-1.0086,-0.7409,-0.4298,-0.0254
7834,-0.0296,-0.0799,-1.0128,-0.8478,-0.8115,-0.1476
7844,-0.0286,-0.0750,-1.0028,-0.8783,-0.9794,-0.0712
7854,-0.0225,-0.0657,-1.0062,-0.7562,-0.9641,0.1273
7864,-0.0308,-0.0743,-1.0040,-0.7562,-1.1168,-0.0407
7874,-0.0330,-0.0713,-1.0062,-0.6493,-1.0252,-0.1170
7884,-0.0279,-0.0733,-1.0079,-0.5730,-0.6893,-0.0712
7894,-0.0283,-0.0733,-1.0079,-0.5730,-0.5977,-0.1781
7904,-0.0288,-0.0694,-1.0142,-0.6340,-0.7351,-0.1323
7914,-0.0313,-0.0760,-1.0007,-0.6188,-0.7656,-0.2239
7924,-0.0229,-0.0735,-1.0067,-0.6188,-0.8267,-0.1018
7934,-0.0293,-0.0774,-1.0002,-0.6646,-0.9031,-0.2544
7944,-0.0271,-0.0786,-1.0038,-0.5882,-0.8878,-0.3460
7954,-0.0291,-0.0711,-1.0082,-0.5424,-0.8267,-0.2544
7964,-0.0259,-0.0750,-1.0036,-0.4356,-0.6282,-0.1934
7974,-0.0279,-0.0762,-1.0009,-0.4203,-0.3534,-0.1781
7984,-0.0328,-0.0762,-1.0011,-0.2982,-0.3382,0.0356
7994,-0.0335,-0.0755,-0.9965,-0.2676,-0.0634,0.0356
8004,-0.0306,-0.0689,-1.0055,-0.1455,0.1046,0.2647
8014,-0.0298,-0.0733,-1.0021,-0.1150,0.0435,0.0815
8024,-0.0359,-0.0725,-1.0074,-0.1302,0.0588,0.1120
8034,-0.0259,-0.0677,-1.0084,-0.2524,-0.1397,0.0967
8044,-0.0286,-0.0686,-1.0026,-0.1913,-0.3840,-0.0102
8054,-0.0347,-0.0721,-1.0043,-0.2218,-0.5672,-0.0407
8064,-0.0298,-0.0733,-1.0060,-0.2066,-0.5214,-0.0254
8074,-0.0279,-0.0718,-1.0091,-0.1455,-0.6588,0.0356
8084,-0.0323,-0.0723,-1.0074,-0.2066,-0.7656,-0.1018
8094,-0.0328,-0.0774,-1.0007,-0.2066,-0.6130,-0.1018
8104,-0.0293,-0.0745,-0.9999,-0.1608,-0.2008,-0.1323
8114,-0.0281,-0.0738,-1.0009,0.0377,0.0435,-0.1628
8124,-0.0320,-0.0733,-1.0040,0.2209,0.6084,-0.1018
8134,-0.0291,-0.0745,-0.9987,0.3736,0.7763,-0.0254
8144,-0.0328,-0.0704,-1.0014,0.3125,0.7458,0.0204
8154,-0.0298,-0.0730,-1.0130,0.2973,0.6389,0.0509
8164,-0.0254,-0.0743,-1.0084,0.2056,0.1809,0.0662
8174,-0.0301,-0.0721,-1.0048,0.0072,-0.2771,0.0051
8184,-0.0249,-0.0750,-1.0065,-0.1150,-0.7351,-0.1170
8194,-0.0342,-0.0757,-1.0033,-0.3287,-0.8725,-0.2697
8204,-0.0318,-0.0745,-1.0021,-0.2524,-0.5519,-0.1170
8214,-0.0301,-0.0747,-1.0079,-0.2829,-0.3687,-0.0254
8224,-0.0315,-0.0789,-1.0111,-0.3592,-0.1244,-0.0865
8234,-0.0306,-0.0716,-1.0038,-0.4050,-0.0786,-0.0254
8244,-0.0288,-0.0745,-1.0031,-0.4203,-0.2008,-0.0712
8254,-0.0340,-0.0774,-1.0007,-0.3898,-0.4145,-0.1323
8264,-0.0347,-0.0801,-1.0118,-0.4050,-0.3840,-0.0102
8274,-0.0291,-0.0757,-1.0050,-0.3592,-0.1397,0.0204
8284,-0.0281,-0.0772,-1.0067,-0.3440,-0.1092,-0.0560
8294,-0.0313,-0.0728,-1.0106,-0.2676,-0.1855,-0.1323
8304,-0.0340,-0.0782,-1.0077,-0.3745,-0.3076,-0.1170
8314,-0.0318,-0.0716,-0.9999,-0.3592,-0.3382,-0.0254
8324,-0.0291,-0.0740,-1.0040,-0.3898,-0.1244,-0.0865
8334,-0.0286,-0.0691,-1.0115,-0.2829,0.1504,-0.0712
8344,-0.0308,-0.0755,-1.0096,-0.3898,0.0740,-0.0712
8354,-0.0308,-0.0801,-1.0053,-0.6951,-0.2924,-0.1628
8364,-0.0310,-0.0750,-1.0009,-0.7104,-0.6588,-0.2392
8374,-0.0367,-0.0721,-1.0065,-0.7104,-0.7962,-0.1476
8384,-0.0298,-0.0745,-1.0089,-0.5882,-0.4908,-0.0560
8394,-0.0293,-0.0730,-1.0024,-0.3134,-0.0176,0.0356
8404,-0.0261,-0.0730,-1.0053,-0.0692,0.5168,0.1273
8414,-0.0315,-0.0711,-1.0055,0.0377,0.7305,-0.0254
8424,-0.0315,-0.0735,-1.0026,0.0682,0.4710,-0.3460
8434,-0.0313,-0.0738,-1.0089,-0.0844,0.1504,-0.4071
8444,-0.0313,-0.0808,-1.0091,-0.1760,-0.1702,-0.3766
8454,-0.0318,-0.0772,-1.0036,-0.1913,-0.1244,-0.2697
8464,-0.0340,-0.0706,-1.0033,-0.0997,0.1046,-0.1476
8474,-0.0315,-0.0701,-1.0053,0.1293,0.2267,-0.1323
8484,-0.0308,-0.0721,-1.0055,0.1293,0.3641,-0.0560
8494,-0.0355,-0.0816,-1.0111,0.1751,0.3489,-0.0712
8504,-0.0249,-0.0716,-1.0055,0.0682,0.4557,0.0204
8514,-0.0276,-0.0738,-1.0074,-0.0081,0.2267,-0.0407
8524,-0.0335,-0.0735,-1.0053,-0.0539,0.1198,-0.0560
8534,-0.0308,-0.0747,-1.0084,-0.1150,0.0435,0.0509
8544,-0.0274,-0.0750,-1.0091,-0.3440,-0.2160,0.0356
8554,-0.0229,-0.0740,-1.0144,-0.5882,-0.4756,-0.0712
8564,-0.0291,-0.0735,-1.0103,-0.7409,-0.9031,-0.1781
8574,-0.0310,-0.0750,-1.0036,-0.8325,-0.9641,-0.1476
8584,-0.0237,-0.0791,-1.0065,-1.0157,-1.0099,-0.0102
8594,-0.0328,-0.0728,-1.0055,-1.0157,-0.8267,-0.0712
8604,-0.0303,-0.0750,-1.0048,-0.9852,-0.5214,-0.1781
8614,-0.0291,-0.0784,-1.0062,-0.9089,-0.1702,-0.0560
8624,-0.0293,-0.0765,-0.9987,-0.7562,0.0893,0.0051
8634,-0.0266,-0.0713,-1.0082,-0.7409,0.2115,-0.0407
8644,-0.0318,-0.0728,-1.0084,-0.6340,-0.0481,-0.0712
8654,-0.0352,-0.0696,-1.0004,-0.5882,-0.2466,-0.1323
8664,-0.0359,-0.0723,-1.0055,-0.5882,-0.3076,-0.1476
8674,-0.0276,-0.0677,-1.0094,-0.4966,-0.1092,-0.0712
8684,-0.0249,-0.0716,-1.0033,-0.4814,-0.0481,-0.2392
8694,-0.0306,-0.0701,-1.0113,-0.4203,-0.1855,-0.2086
8704,-0.0276,-0.0704,-1.0135,-0.3440,-0.2160,-0.2239
8714,-0.0291,-0.0721,-1.0123,-0.2676,-0.2313,-0.2697
8724,-0.0286,-0.0747,-1.0062,-0.0997,-0.2008,-0.1476
8734,-0.0274,-0.0725,-1.0050,0.0072,-0.0786,-0.0254
8744,-0.0337,-0.0762,-1.0084,0.0224,-0.0481,-0.1476
8754,-0.0301,-0.0760,-1.0082,0.0072,-0.1702,-0.1781
8764,-0.0323,-0.0755,-1.0031,0.0072,-0.3687,-0.1781
8774,-0.0298,-0.0725,-0.9978,-0.0692,-0.6588,-0.2544
8784,-0.0301,-0.0716,-1.0089,-0.1608,-0.5824,-0.2392
8794,-0.0342,-0.0743,-1.0033,-0.1608,-0.3382,-0.2697
8804,-0.0306,-0.0765,-1.0103,-0.1302,0.1198,-0.2239
8814,-0.0308,-0.0782,-1.0028,-0.2371,0.2878,-0.1781
8824,-0.0279,-0.0765,-1.0108,-0.3440,0.1198,-0.1018
8834,-0.0308,-0.0767,-1.0043,-0.5272,-0.0634,-0.1323
8844,-0.0320,-0.0711,-1.0016,-0.5272,-0.1550,-0.0712
8854,-0.0303,-0.0725,-1.0019,-0.5424,-0.1702,-0.2239
8864,-0.0357,-0.0728,-0.9997,-0.3745,-0.1244,-0.2697
8874,-0.0308,-0.0701,-1.0072,-0.1760,0.2115,-0.1476
8884,-0.0342,-0.0713,-1.0067,-0.0692,0.2878,-0.2392
8894,-0.0357,-0.0672,-1.0115,-0.0234,0.1962,-0.2086
8904,-0.0296,-0.0728,-1.0011,0.1598,0.1656,-0.1476
8914,-0.0323,-0.0735,-1.0057,0.1904,0.1809,-0.1170
8924,-0.0315,-0.0682,-1.0040,0.2667,0.0893,-0.1628
8934,-0.0310,-0.0708,-1.0060,0.2667,-0.0634,-0.0865
8944,-0.0269,-0.0723,-1.0057,0.1293,-0.1244,-0.0712
8954,-0.0288,-0.0752,-1.0074,0.0988,-0.1855,-0.1628
8964,-0.0364,-0.0784,-1.0031,0.1140,-0.0176,-0.2239
8974,-0.0328,-0.0743,-1.0036,0.1904,0.4710,-0.1781
8984,-0.0335,-0.0735,-1.0016,0.2973,0.9290,-0.1781
8994,-0.0310,-0.0704,-1.0101,0.2973,0.9443,-0.1018
9004,-0.0330,-0.0738,-1.0060,0.2209,0.4405,-0.1018
9014,-0.0313,-0.0706,-1.0096,0.0530,-0.1702,-0.1018
9024,-0.0276,-0.0735,-1.0091,-0.2371,-0.5061,-0.1018
9034,-0.0303,-0.0772,-1.0028,-0.2676,-0.5672,-0.2392
9044,-0.0310,-0.0772,-1.0033,-0.2676,-0.2008,-0.0560
9054,-0.0288,-0.0752,-1.0062,-0.2829,0.2267,-0.0254
9064,-0.0296,-0.0752,-1.0103,-0.2829,0.4099,-0.0865
9074,-0.0254,-0.0757,-1.0065,-0.2982,0.3794,-0.0865
9084,-0.0315,-0.0747,-1.0043,-0.3745,-0.0176,-0.2697
9094,-0.0271,-0.0706,-1.0024,-0.3898,-0.2618,-0.2697
9104,-0.0301,-0.0725,-1.0036,-0.3287,-0.2924,-0.2850
9114,-0.0291,-0.0765,-1.0118,-0.2218,-0.1244,-0.2239
9124,-0.0318,-0.0777,-1.0026,-0.2829,0.0893,-0.1781
9134,-0.0293,-0.0740,-1.0028,-0.2371,0.1962,0.0356
9144,-0.0355,-0.0774,-1.0084,-0.2524,0.1351,-0.0407
9154,-0.0293,-0.0735,-1.0086,-0.1913,0.1046,0.0356
9164,-0.0271,-0.0738,-1.0067,-0.0997,0.0893,0.0815
9174,-0.0320,-0.0762,-1.0026,-0.2371,-0.0023,-0.1018
9184,-0.0320,-0.0713,-1.0082,-0.3134,-0.0176,-0.0254
9194,-0.0320,-0.0740,-1.0053,-0.4203,-0.3229,-0.0254
9204,-0.0269,-0.0769,-1.0038,-0.5577,-0.5672,0.0815
9214,-0.0281,-0.0774,-1.0026,-0.6340,-0.7046,0.1731
9224,-0.0227,-0.0760,-0.9990,-0.6340,-0.6282,0.0662
9234,-0.0259,-0.0738,-1.0031,-0.5424,-0.7962,-0.1628
9244,-0.0396,-0.0806,-0.9876,-0.5424,-0.8115,-0.7735
9254,-0.0114,-0.0694,-1.0065,-0.2524,-0.2160,-0.5903
9264,-0.0279,-0.0679,-1.0149,0.0835,0.4099,-0.6819
9274,-0.0472,-0.0704,-1.0045,0.2667,0.9901,-0.2850
9284,-0.0301,-0.0691,-1.0043,0.2515,1.0969,0.0051
9294,-0.0333,-0.0791,-1.0057,0.1293,0.8527,0.0356
9304,-0.0374,-0.0733,-1.0074,-0.0844,0.5626,0.2189
9314,-0.0109,-0.0640,-1.0086,-0.1760,0.3336,0.5242
9324,-0.0337,-0.0772,-0.9970,-0.3440,-0.6740,0.1120
9334,-0.0470,-0.0750,-0.9978,-0.4203,-0.9336,0.3257
9344,-0.0283,-0.0652,-1.0111,-0.2982,-0.8267,0.5700
9354,-0.0306,-0.0816,-1.0036,-0.2066,-0.9031,0.2494
9364,-0.0274,-0.0772,-1.0072,-0.2524,-0.6130,0.4326
9374,-0.0283,-0.0686,-1.0036,-0.2982,-0.5366,0.3868
9384,-0.0244,-0.0706,-0.9987,-0.3440,-0.6740,0.1578
9394,-0.0283,-0.0735,-1.0016,-0.3745,-0.7198,-0.1170
9404,-0.0293,-0.0765,-1.0040,-0.2982,-0.7809,-0.3766
9414,-0.0391,-0.0628,-0.9910,-0.1302,-0.5519,-0.1781
9424,-0.0345,-0.0696,-0.9924,-0.0692,-0.0786,0.0356
9434,-0.0080,-0.0657,-1.0157,0.0377,0.1504,0.1120
9444,-0.0369,-0.0779,-1.0065,-0.1302,-0.2924,-0.4834
9454,-0.0379,-0.0799,-1.0096,-0.2982,-0.5824,-0.4529
9464,-0.0308,-0.0811,-1.0045,-0.3134,-0.6588,-0.2239
9474,-0.0337,-0.0760,-1.0060,-0.3592,-0.6435,-0.2086
9484,-0.0274,-0.0782,-1.0077,-0.3898,-0.4298,-0.0560
9494,-0.0291,-0.0738,-1.0045,-0.3745,-0.0939,0.0204
9504,-0.0303,-0.0796,-1.0036,-0.2982,-0.0176,0.0204
9514,-0.0330,-0.0743,-1.0053,-0.2676,-0.0176,-0.0254
9524,-0.0261,-0.0782,-1.0140,-0.2982,0.1809,0.0356
9534,-0.0328,-0.0725,-1.0033,-0.2829,0.1504,0.0662
9544,-0.0315,-0.0721,-1.0014,-0.2524,0.1351,-0.0102
9554,-0.0296,-0.0713,-0.9956,-0.2218,0.0282,-0.1628
9564,-0.0264,-0.0730,-1.0077,-0.3287,-0.2313,-0.1018
9574,-0.0279,-0.0765,-1.0045,-0.2982,-0.4145,-0.1018
9584,-0.0323,-0.0745,-0.9990,-0.2371,-0.3840,0.0051
9594,-0.0298,-0.0723,-0.9963,-0.2676,-0.1550,0.1273
9604,-0.0288,-0.0711,-1.0069,-0.1455,-0.1855,0.2036
9614,-0.0283,-0.0745,-0.9995,-0.2066,-0.0786,0.1578
9624,-0.0296,-0.0774,-1.0031,-0.1913,-0.1092,0.0662
9634,-0.0269,-0.0713,-1.0086,-0.2066,-0.3992,-0.1170
9644,-0.0318,-0.0716,-1.0053,-0.4050,-0.5977,-0.3155
9654,-0.0384,-0.0774,-1.0045,-0.3745,-0.5061,-0.4529
9664,-0.0377,-0.0774,-0.9992,-0.2676,-0.2008,-0.1628
9674,-0.0308,-0.0777,-1.0048,-0.0844,0.2878,0.0204
9684,-0.0308,-0.0762,-1.0043,0.1446,0.5321,0.0204
9694,-0.0266,-0.0708,-1.0045,0.2820,0.5779,0.1273
9704,-0.0337,-0.0750,-1.0195,0.1751,0.0740,0.0356
9714,-0.0259,-0.0747,-1.0137,-0.0844,-0.4756,0.0204
9724,-0.0279,-0.0772,-1.0014,-0.1913,-0.6588,0.0662
9734,-0.0225,-0.0706,-1.0028,-0.1913,-0.5214,0.0815
9744,-0.0310,-0.0752,-1.0011,0.0530,-0.1550,0.0051
9754,-0.0298,-0.0757,-1.0077,0.3736,0.7458,0.0356
9764,-0.0269,-0.0782,-1.0021,0.5568,1.3260,0.0662
9774,-0.0286,-0.0721,-1.0065,0.5568,1.3565,0.0204
9784,-0.0276,-0.0743,-1.0082,0.3278,0.9137,-0.0560
9794,-0.0261,-0.0713,-1.0082,0.1446,0.1809,-0.1018
9804,-0.0291,-0.0738,-1.0028,-0.1150,-0.2618,-0.1781
9814,-0.0269,-0.0730,-1.0036,-0.2066,-0.5672,-0.2697
9824,-0.0328,-0.0760,-1.0004,-0.2829,-0.5366,-0.3155
9834,-0.0310,-0.0796,-1.0077,-0.2524,-0.1550,-0.2239
9844,-0.0323,-0.0777,-1.0053,-0.1608,0.3183,-0.1934
9854,-0.0313,-0.0757,-1.0040,-0.1302,0.5321,-0.0712
9864,-0.0283,-0.0745,-1.0033,-0.1455,0.6237,0.0356
9874,-0.0328,-0.0718,-0.9992,-0.1608,0.4557,0.0356
9884,-0.0286,-0.0772,-1.0065,-0.2524,0.2115,0.1273
9894,-0.0249,-0.0718,-1.0053,-0.2829,-0.1397,0.0815
9904,-0.0237,-0.0791,-1.0069,-0.3440,-0.3229,-0.0560
9914,-0.0306,-0.0777,-1.0099,-0.3134,-0.2008,-0.2086
9924,-0.0313,-0.0750,-1.0057,-0.2371,0.1962,-0.1934
9934,-0.0318,-0.0786,-1.0084,-0.1302,0.6084,-0.0712
9944,-0.0281,-0.0728,-1.0014,-0.0081,0.8527,-0.0560
9954,-0.0301,-0.0691,-1.0065,0.1140,0.7305,-0.0407
9964,-0.0266,-0.0728,-1.0062,0.0377,0.3947,-0.0712
9974,-0.0386,-0.0779,-1.0062,-0.1302,-0.3076,-0.2544
9984,-0.0306,-0.0755,-1.0067,-0.3287,-0.6130,-0.2086
9994,-0.0288,-0.0791,-1.0019,-0.4508,-0.6893,-0.0712
10004,-0.0261,-0.0725,-1.0103,-0.5424,-0.6130,-0.0254
10014,-0.0291,-0.0769,-0.9992,-0.5730,-0.6282,-0.0102
10024,-0.0306,-0.0791,-1.0072,-0.7867,-0.4603,-0.0254
10034,-0.0286,-0.0747,-1.0128,-0.8936,-0.3382,-0.1018
10044,-0.0281,-0.0762,-1.0086,-0.9699,-0.3382,-0.1170
10054,-0.0293,-0.0750,-1.0089,-1.0005,-0.3687,-0.2850
10064,-0.0301,-0.0686,-1.0004,-0.9089,-0.4908,-0.2697
10074,-0.0266,-0.0747,-1.0009,-0.6798,-0.3076,-0.1781
10084,-0.0288,-0.0738,-1.0033,-0.3745,-0.0786,-0.1170
10094,-0.0310,-0.0738,-0.9973,-0.3592,0.1809,-0.1476
10104,-0.0229,-0.0696,-1.0038,-0.1150,0.4099,-0.0102
10114,-0.0315,-0.0750,-1.0016,0.0530,0.3031,-0.1476
10124,-0.0369,-0.0772,-1.0065,0.2056,0.3336,-0.1781
10134,-0.0342,-0.0711,-1.0091,0.3125,0.4863,-0.0254
10144,-0.0185,-0.0708,-1.0096,0.3431,0.1504,-0.0560
10154,-0.0333,-0.0813,-1.0069,0.1904,-0.3992,-0.2850
10164,-0.0342,-0.0750,-1.0011,0.1446,-0.4298,-0.0407
10174,-0.0315,-0.0755,-1.0074,-0.0081,-0.3687,0.0509
10184,-0.0266,-0.0757,-1.0021,-0.0081,-0.2618,0.1731
10194,-0.0288,-0.0730,-1.0024,-0.0844,-0.1550,0.0815
10204,-0.0306,-0.0750,-1.0036,-0.0997,-0.3992,0.0204
10214,-0.0261,-0.0745,-1.0074,-0.2524,-0.7962,-0.1170
10224,-0.0298,-0.0760,-0.9990,-0.3898,-0.7809,-0.0712
10234,-0.0271,-0.0738,-1.0074,-0.3745,-0.4603,-0.0865
10244,-0.0259,-0.0767,-1.0036,-0.4050,-0.1397,-0.3308
10254,-0.0281,-0.0750,-1.0014,-0.2982,0.3489,-0.2850
10264,-0.0259,-0.0738,-1.0135,-0.2066,0.6237,-0.1781
10274,-0.0308,-0.0740,-1.0021,-0.1455,0.7000,-0.1628
10284,-0.0259,-0.0728,-1.0120,-0.2829,0.5015,-0.1323
10294,-0.0320,-0.0706,-1.0115,-0.4661,-0.0786,-0.1323
10304,-0.0303,-0.0723,-0.9968,-0.6188,-0.6893,-0.0407
10314,-0.0276,-0.0767,-1.0048,-0.8173,-1.0252,0.0051
10324,-0.0286,-0.0765,-1.0024,-0.8325,-0.9489,-0.1018
10334,-0.0313,-0.0728,-0.9987,-0.6951,-0.5977,-0.1781
10344,-0.0318,-0.0750,-1.0016,-0.4356,0.0130,-0.2544
10354,-0.0315,-0.0728,-1.0021,-0.1913,0.4863,-0.1170
10364,-0.0237,-0.0728,-1.0040,-0.0997,0.6847,-0.1628
10374,-0.0293,-0.0730,-1.0108,-0.0539,0.5473,-0.1934
10384,-0.0279,-0.0767,-1.0099,-0.2066,0.1809,-0.0865
10394,-0.0259,-0.0752,-1.0074,-0.3287,-0.3382,-0.0865
10404,-0.0306,-0.0701,-1.0106,-0.4814,-0.9031,-0.0865
10414,-0.0279,-0.0684,-1.0057,-0.4814,-1.2847,-0.0560
10424,-0.0333,-0.0777,-1.0028,-0.3745,-1.4374,-0.0102
10434,-0.0340,-0.0774,-1.0108,-0.3898,-1.3763,-0.0102
10444,-0.0283,-0.0745,-1.0016,-0.3440,-1.3763,0.1425
10454,-0.0286,-0.0765,-0.9990,-0.5577,-1.1321,0.3257
10464,-0.0357,-0.0782,-1.0053,-0.6798,-0.8573,0.3105
10474,-0.0298,-0.0716,-1.0096,-0.6951,-0.8115,0.3715
10484,-0.0271,-0.0738,-1.0118,-0.8173,-1.0863,0.1883
10494,-0.0274,-0.0794,-1.0053,-0.9547,-1.2695,0.0356
10504,-0.0301,-0.0757,-1.0091,-1.0768,-1.1473,0.0356
10514,-0.0286,-0.0782,-1.0033,-1.2905,-1.1168,-0.0712
10524,-0.0345,-0.0760,-1.0021,-1.3363,-0.8878,-0.0102
10534,-0.0254,-0.0735,-1.0077,-1.2295,-0.7504,0.2341
10544,-0.0269,-0.0733,-1.0014,-1.2600,-0.9641,0.0662
10554,-0.0310,-0.0740,-1.0072,-1.1531,-1.1321,-0.0865
10564,-0.0286,-0.0745,-1.0016,-0.8936,-1.1779,0.0356
10574,-0.0382,-0.0760,-1.0096,-0.6798,-1.0863,0.1120
10584,-0.0350,-0.0721,-1.0024,-0.3440,-0.6435,0.2341
10594,-0.0318,-0.0645,-1.0016,-0.0386,-0.1855,0.3715
10604,-0.0249,-0.0662,-1.0072,0.1293,-0.0328,0.3715
10614,-0.0291,-0.0679,-1.0106,0.0988,-0.2771,0.1273
10624,-0.0369,-0.0691,-1.0113,0.0530,-0.6282,0.0967
10634,-0.0328,-0.0723,-1.0062,-0.0386,-0.9489,0.1425
10644,-0.0288,-0.0704,-1.0048,-0.0997,-1.4679,0.2189
10654,-0.0362,-0.0713,-1.0062,-0.2676,-1.8191,0.3257
10664,-0.0409,-0.0755,-1.0009,-0.2676,-1.9412,0.3868
10674,-0.0328,-0.0760,-1.0074,-0.1608,-1.7885,0.5089
10684,-0.0328,-0.0789,-1.0055,-0.2066,-1.5290,0.4784
10694,-0.0306,-0.0784,-1.0101,-0.2829,-1.4832,0.4326
10704,-0.0318,-0.0760,-1.0060,-0.3134,-1.3305,0.2341
10714,-0.0352,-0.0789,-1.0033,-0.4050,-1.1168,0.1731
10724,-0.0377,-0.0733,-1.0128,-0.4966,-0.9183,0.0815
10734,-0.0367,-0.0721,-1.0065,-0.6340,-0.6282,0.2341
10744,-0.0330,-0.0755,-1.0048,-0.7256,-0.4298,0.3563
10754,-0.0328,-0.0765,-1.0096,-0.8936,-0.6130,0.2036
10764,-0.0328,-0.0701,-1.0108,-1.1531,-0.8115,0.0356
10774,-0.0333,-0.0738,-1.0084,-1.4890,-1.1931,-0.1323
10784,-0.0379,-0.0664,-1.0033,-1.4585,-1.4374,-0.0407
10794,-0.0325,-0.0677,-1.0031,-1.4279,-1.1321,0.0051
10804,-0.0394,-0.0652,-1.0048,-1.1226,-0.4908,0.0662
10814,-0.0342,-0.0650,-1.0014,-0.7104,0.0588,0.0967
10824,-0.0340,-0.0699,-1.0033,-0.4050,0.5015,0.2341
10834,-0.0320,-0.0723,-1.0115,-0.2524,0.3031,0.2799
10844,-0.0372,-0.0723,-1.0040,-0.3287,-0.0328,0.1883
10854,-0.0330,-0.0740,-1.0014,-0.0692,-0.3229,0.1883
10864,-0.0384,-0.0652,-0.9987,0.1446,-0.5061,0.0356
10874,-0.0357,-0.0657,-0.9949,0.5110,-0.4603,-0.1628
10884,-0.0399,-0.0691,-0.9990,0.8011,-0.2618,-0.1476
10894,-0.0394,-0.0765,-1.0031,1.1369,0.0893,-0.1476
10904,-0.0345,-0.0779,-1.0048,1.2285,0.5779,-0.1018
10914,-0.0352,-0.0718,-1.0036,1.1217,1.0206,-0.0102
10924,-0.0350,-0.0713,-1.0026,1.0911,1.4023,0.1273
10934,-0.0318,-0.0743,-1.0072,1.0453,1.5397,0.2341
10944,-0.0313,-0.0757,-1.0125,0.8927,1.2344,0.2189
10954,-0.0301,-0.0765,-1.0115,0.7247,0.7611,0.1120
10964,-0.0323,-0.0747,-1.0074,0.4194,0.3336,0.1425
10974,-0.0323,-0.0740,-1.0024,0.2820,0.1351,-0.0102
10984,-0.0340,-0.0745,-1.0065,0.1904,0.1504,-0.0560
10994,-0.0350,-0.0735,-1.0026,0.1598,0.5015,-0.0712
11004,-0.0315,-0.0740,-1.0031,0.0988,0.8985,-0.1170
11014,-0.0372,-0.0730,-1.0028,-0.0234,0.8527,-0.1018
11024,-0.0342,-0.0760,-1.0060,-0.2524,0.5473,-0.1018
11034,-0.0330,-0.0725,-1.0060,-0.4203,0.0435,-0.1170
11044,-0.0328,-0.0738,-1.0072,-0.4661,-0.4450,-0.0254
11054,-0.0323,-0.0704,-1.0009,-0.5577,-0.7198,-0.0712
11064,-0.0352,-0.0755,-1.0060,-0.3592,-0.4756,-0.0254
11074,-0.0283,-0.0752,-0.9985,-0.1302,0.2267,-0.1323
11084,-0.0291,-0.0723,-1.0055,0.1293,0.8679,-0.1628
11094,-0.0320,-0.0777,-1.0019,0.2820,1.2496,-0.3002
11104,-0.0320,-0.0725,-1.0055,0.3736,1.2496,-0.3613
11114,-0.0352,-0.0706,-1.0103,0.2515,0.9748,-0.3155
11124,-0.0342,-0.0740,-1.0016,0.0530,0.4557,-0.2392
11134,-0.0320,-0.0728,-1.0101,-0.2066,-0.1244,-0.1934
11144,-0.0342,-0.0730,-1.0103,-0.4203,-0.6893,-0.2392
11154,-0.0374,-0.0769,-1.0043,-0.4814,-0.7809,-0.2392
11164,-0.0286,-0.0747,-1.0040,-0.4050,-0.3382,-0.0865
11174,-0.0293,-0.0735,-1.0038,-0.2829,-0.0481,-0.0560
11184,-0.0296,-0.0745,-1.0111,-0.2676,0.1504,-0.0102
11194,-0.0323,-0.0725,-1.0053,-0.1913,0.1962,-0.0712
11204,-0.0340,-0.0713,-1.0002,-0.2676,0.0435,-0.0712
11214,-0.0271,-0.0725,-1.0067,-0.3287,-0.2160,-0.0102
11224,-0.0310,-0.0779,-1.0045,-0.4508,-0.4603,-0.2850
11234,-0.0310,-0.0750,-1.0074,-0.5730,-0.4603,-0.4071
11244,-0.0355,-0.0721,-0.9999,-0.5882,-0.0328,-0.3002
11254,-0.0303,-0.0701,-1.0011,-0.4966,0.1809,-0.2697
11264,-0.0303,-0.0762,-1.0038,-0.4508,0.3183,-0.1781
11274,-0.0323,-0.0779,-1.0021,-0.4356,0.2573,0.0356
11284,-0.0234,-0.0696,-1.0079,-0.3898,0.0740,0.0356
11294,-0.0252,-0.0721,-1.0048,-0.4203,-0.3840,-0.1476
11304,-0.0306,-0.0772,-0.9965,-0.2982,-0.5519,-0.2392
11314,-0.0320,-0.0713,-1.0021,-0.1760,-0.3382,-0.1323
11324,-0.0325,-0.0772,-1.0004,-0.0997,0.0130,-0.1323
11334,-0.0333,-0.0733,-1.0057,0.0835,0.3183,-0.2697
11344,-0.0308,-0.0735,-1.0099,0.1751,0.4863,-0.2544
11354,-0.0328,-0.0708,-1.0091,0.1446,0.4099,-0.2239
11364,-0.0315,-0.0733,-1.0053,0.1446,0.1809,-0.1628
11374,-0.0259,-0.0740,-1.0038,-0.0081,-0.2771,-0.0560
11384,-0.0333,-0.0782,-1.0028,-0.1302,-0.4145,-0.0407
11394,-0.0357,-0.0735,-1.0099,-0.1455,-0.2313,-0.0407
11404,-0.0342,-0.0794,-1.0079,-0.2676,-0.0176,-0.1323
11414,-0.0313,-0.0755,-1.0091,-0.4508,0.1046,-0.1018
11424,-0.0325,-0.0784,-1.0060,-0.6035,-0.0481,-0.1323
11434,-0.0310,-0.0750,-1.0009,-0.7562,-0.4450,-0.1628
11444,-0.0325,-0.0728,-1.0103,-0.7256,-0.7504,-0.3002
11454,-0.0399,-0.0745,-1.0065,-0.6188,-0.6282,-0.2239
11464,-0.0323,-0.0804,-1.0094,-0.6646,-0.3992,-0.1628
11474,-0.0320,-0.0745,-1.0106,-0.5577,-0.0786,-0.1018
11484,-0.0333,-0.0743,-1.0091,-0.7104,0.0893,-0.1018
11494,-0.0288,-0.0750,-1.0060,-0.9089,0.0588,-0.1018
11504,-0.0308,-0.0735,-1.0069,-1.0005,-0.0786,-0.2086
11514,-0.0333,-0.0686,-1.0082,-1.1379,-0.2160,-0.2697
11524,-0.0274,-0.0684,-1.0089,-1.1989,-0.4298,-0.1323
11534,-0.0293,-0.0747,-1.0079,-1.3211,-0.9794,-0.2850
11544,-0.0367,-0.0772,-1.0053,-1.4737,-1.5443,-0.1934
11554,-0.0340,-0.0716,-1.0074,-1.5348,-1.9260,-0.2239
11564,-0.0328,-0.0672,-1.0062,-1.5348,-2.0786,-0.2086
11574,-0.0372,-0.0743,-1.0011,-1.4279,-1.8496,-0.2392
11584,-0.0342,-0.0762,-0.9990,-1.2447,-1.2084,0.0356
11594,-0.0352,-0.0682,-0.9990,-0.9089,-0.4145,0.0967
11604,-0.0374,-0.0716,-1.0038,-0.8325,-0.0176,0.0815
11614,-0.0328,-0.0694,-1.0120,-0.7867,-0.3992,0.0662
11624,-0.0244,-0.0691,-1.0062,-0.9852,-1.3153,-0.0560
11634,-0.0367,-0.0689,-1.0024,-1.2600,-2.1550,-0.2544
11644,-0.0340,-0.0657,-1.0055,-1.3669,-2.6435,-0.2544
11654,-0.0389,-0.0679,-1.0026,-1.3974,-2.7504,-0.2086
11664,-0.0320,-0.0701,-1.0014,-1.1073,-2.4298,-0.0560
11674,-0.0431,-0.0730,-0.9975,-0.7867,-1.5748,-0.0712
11684,-0.0382,-0.0672,-1.0016,-0.3287,-0.3229,-0.0712
11694,-0.0288,-0.0733,-1.0045,0.0682,0.8221,-0.0254
11704,-0.0342,-0.0738,-1.0043,0.4499,1.4481,-0.0254
11714,-0.0320,-0.0696,-1.0060,0.6942,1.6160,-0.0407
11724,-0.0345,-0.0669,-1.0040,0.8316,1.5092,-0.1018
11734,-0.0347,-0.0694,-1.0033,0.7553,1.0817,-0.2086
11744,-0.0396,-0.0701,-1.0048,0.6637,0.7916,-0.3155
11754,-0.0335,-0.0791,-1.0011,0.6789,0.8221,-0.1781
11764,-0.0372,-0.0713,-1.0060,0.6637,0.8069,0.0204
11774,-0.0342,-0.0701,-1.0028,0.6942,0.6084,-0.0254
11784,-0.0288,-0.0669,-1.0106,0.5721,0.3336,-0.0102
11794,-0.0355,-0.0728,-1.0036,0.5415,0.0740,-0.1323
11804,-0.0345,-0.0738,-1.0077,0.3583,-0.0786,-0.1323
11814,-0.0323,-0.0718,-1.0132,0.1293,-0.1092,-0.1628
11824,-0.0323,-0.0728,-1.0069,-0.1913,-0.0176,-0.0865
11834,-0.0293,-0.0772,-1.0055,-0.4814,-0.0176,-0.2086
11844,-0.0306,-0.0801,-1.0026,-0.6798,0.0130,-0.1476
11854,-0.0357,-0.0733,-0.9951,-0.6798,0.2267,-0.0712
11864,-0.0394,-0.0752,-1.0011,-0.5577,0.3489,-0.1781
11874,-0.0266,-0.0664,-1.0065,-0.1302,0.8221,-0.1170
11884,-0.0359,-0.0733,-1.0011,0.0377,0.9290,-0.2544
11894,-0.0445,-0.0723,-1.0031,0.1904,1.1733,-0.0102
11904,-0.0261,-0.0618,-1.0166,0.1751,0.6389,0.1578
11914,-0.0386,-0.0694,-1.0140,-0.1455,-0.5519,-0.1170
11924,-0.0323,-0.0713,-1.0118,-0.3134,-1.3916,-0.0712
11934,-0.0279,-0.0779,-1.0028,-0.5424,-1.6817,-0.0865
11944,-0.0377,-0.0718,-1.0033,-0.4814,-1.5901,-0.1018
11954,-0.0337,-0.0704,-1.0004,-0.4050,-0.8267,-0.0865
11964,-0.0357,-0.0757,-1.0021,-0.3440,-0.0786,-0.0102
11974,-0.0342,-0.0745,-1.0045,-0.3134,0.4099,0.0051
11984,-0.0384,-0.0711,-1.0021,-0.2371,0.5626,-0.0712
11994,-0.0325,-0.0718,-1.0019,-0.0844,0.7458,-0.0560
12004,-0.0296,-0.0733,-0.9999,-0.0081,0.7153,0.0051
12014,-0.0352,-0.0743,-1.0062,0.0835,0.4405,-0.1170
12024,-0.0313,-0.0735,-1.0004,0.1751,0.1809,-0.1476
12034,-0.0355,-0.0743,-1.0033,0.1904,-0.2008,-0.3002
12044,-0.0315,-0.0713,-1.0086,0.3431,-0.2924,-0.2544
12054,-0.0318,-0.0711,-1.0050,0.3889,0.0435,-0.2239
12064,-0.0374,-0.0699,-1.0002,0.4194,0.4863,-0.2086
12074,-0.0352,-0.0713,-1.0038,0.4194,0.9748,-0.0254
12084,-0.0350,-0.0738,-1.0055,0.3431,1.1122,-0.0560
12094,-0.0369,-0.0701,-1.0086,0.2056,0.7458,-0.2392
12104,-0.0333,-0.0708,-1.0086,0.1140,0.3336,-0.1934
12114,-0.0308,-0.0755,-1.0050,-0.0081,0.1351,-0.3002
12124,-0.0352,-0.0747,-1.0045,-0.0997,-0.0328,-0.2392
12134,-0.0345,-0.0757,-1.0091,-0.1150,0.0130,-0.1934
12144,-0.0337,-0.0786,-1.0120,-0.1913,0.2115,-0.1170
12154,-0.0286,-0.0733,-1.0089,-0.1760,0.2573,-0.1018
12164,-0.0313,-0.0706,-1.0074,-0.2371,0.1504,-0.1170
12174,-0.0269,-0.0733,-0.9987,-0.1760,0.0893,-0.1323
12184,-0.0301,-0.0713,-0.9990,-0.0692,-0.0634,-0.0865
12194,-0.0352,-0.0733,-1.0067,0.0682,0.0588,-0.1781
12204,-0.0320,-0.0704,-1.0050,0.1446,0.1656,-0.0865
12214,-0.0310,-0.0784,-1.0089,0.0530,-0.0786,-0.0865
12224,-0.0342,-0.0733,-1.0077,-0.0234,-0.1550,-0.1323
12234,-0.0355,-0.0689,-0.9990,-0.2218,-0.1702,-0.0560
12244,-0.0269,-0.0694,-1.0067,-0.3440,-0.1244,-0.0254
12254,-0.0313,-0.0735,-1.0094,-0.4508,-0.4908,-0.0407
12264,-0.0303,-0.0711,-1.0055,-0.6035,-0.7962,-0.1476
12274,-0.0266,-0.0718,-1.0082,-0.6493,-0.8115,-0.1323
12284,-0.0359,-0.0679,-1.0002,-0.5119,-0.7504,-0.1628
12294,-0.0335,-0.0701,-1.0014,-0.3440,-0.4145,-0.0712
12304,-0.0355,-0.0708,-1.0019,-0.1608,-0.2008,0.1273
12314,-0.0355,-0.0723,-1.0038,0.0377,-0.1702,0.0815
12324,-0.0318,-0.0784,-1.0057,0.0072,-0.2618,0.1578
12334,-0.0310,-0.0691,-1.0079,0.0072,-0.5977,0.0204
12344,-0.0337,-0.0677,-1.0050,-0.0081,-0.8420,-0.0560
12354,-0.0286,-0.0740,-1.0055,-0.1302,-0.9794,-0.0560
12364,-0.0313,-0.0747,-1.0108,-0.2524,-1.0099,-0.1323
12374,-0.0347,-0.0747,-1.0060,-0.5882,-1.1626,-0.1476
12384,-0.0335,-0.0730,-0.9965,-1.0005,-1.3305,-0.1018
12394,-0.0227,-0.0733,-0.9985,-1.1684,-1.4679,-0.0560
12404,-0.0359,-0.0628,-1.0069,-1.2905,-1.7275,-0.1323
12414,-0.0313,-0.0750,-1.0024,-1.3821,-1.8954,0.0051
12424,-0.0310,-0.0755,-1.0021,-1.3363,-2.1244,-0.1018
12434,-0.0394,-0.0694,-1.0082,-1.2905,-1.8954,-0.2086
12444,-0.0330,-0.0735,-1.0055,-1.1531,-1.5443,0.0051
12454,-0.0436,-0.0691,-1.0128,-1.1531,-1.3153,-0.0560
12464,-0.0330,-0.0745,-1.0132,-1.1684,-1.4527,-0.0407
12474,-0.0362,-0.0760,-1.0086,-1.4585,-1.7733,0.0967
12484,-0.0355,-0.0694,-1.0142,-1.6875,-2.2313,0.2036
12494,-0.0222,-0.0686,-1.0101,-1.8249,-2.8725,0.2036
12504,-0.0382,-0.0667,-1.0036,-1.9165,-3.5137,0.0204
12514,-0.0416,-0.0589,-1.0072,-1.9928,-3.6053,-0.0407
12524,-0.0379,-0.0660,-0.9987,-1.8860,-3.2542,-0.0560
12534,-0.0323,-0.0581,-0.9978,-1.7485,-2.5519,0.1425
12544,-0.0450,-0.0696,-0.9999,-1.6264,-1.9565,0.1578
12554,-0.0438,-0.0652,-1.0079,-1.4127,-1.7580,0.2036
12564,-0.0364,-0.0723,-0.9963,-1.1073,-1.6206,0.2952
12574,-0.0436,-0.0738,-0.9934,-0.8325,-1.8802,0.4021
12584,-0.0433,-0.0699,-0.9987,-0.4966,-1.9107,0.4479
12594,-0.0558,-0.0774,-1.0021,-0.0844,-1.8496,0.6463
12604,-0.0279,-0.0669,-1.0069,0.3431,-1.8954,1.1044
12614,-0.0406,-0.0728,-0.9999,0.5721,-2.1244,0.7990
12624,-0.0409,-0.0821,-1.0077,0.8163,-1.8496,0.7837
12634,-0.0470,-0.0804,-1.0096,0.7400,-1.4832,0.6769
12644,-0.0337,-0.0699,-1.0084,0.4805,-1.1626,0.6921
12654,-0.0416,-0.0694,-1.0084,0.1904,-0.8725,0.4631
12664,-0.0443,-0.0701,-0.9999,0.0377,-0.3076,0.4479
12674,-0.0416,-0.0752,-1.0057,-0.0844,0.3183,0.3257
12684,-0.0428,-0.0713,-1.0115,-0.2829,0.7611,0.2494
12694,-0.0416,-0.0745,-1.0144,-0.4966,1.2496,0.2189
12704,-0.0443,-0.0745,-1.0065,-0.6951,1.3260,-0.0254
12714,-0.0423,-0.0704,-1.0050,-0.9699,1.2191,-0.0407
12724,-0.0394,-0.0699,-1.0084,-1.1073,0.8374,-0.2697
12734,-0.0438,-0.0728,-1.0028,-1.1379,0.5779,-0.4224
12744,-0.0423,-0.0686,-1.0021,-0.9394,0.6237,-0.3308
12754,-0.0377,-0.0711,-1.0069,-0.8936,0.6542,-0.1781
12764,-0.0431,-0.0730,-1.0096,-0.7562,0.7153,-0.2392
12774,-0.0335,-0.0723,-1.0074,-0.6188,0.7000,-0.0560
12784,-0.0409,-0.0677,-1.0072,-0.5424,0.7458,-0.1018
12794,-0.0372,-0.0647,-1.0043,-0.4508,0.8832,-0.0102
12804,-0.0303,-0.0608,-1.0024,-0.3134,0.8374,-0.1476
12814,-0.0301,-0.0633,-1.0040,0.0377,0.9901,-0.4376
12824,-0.0423,-0.0682,-1.0019,0.3583,1.5550,-0.4224
12834,-0.0421,-0.0630,-0.9980,0.7553,2.2573,-0.3460
12844,-0.0389,-0.0689,-1.0026,1.1064,3.0206,-0.3308
12854,-0.0406,-0.0640,-1.0069,1.3660,3.1580,-0.4224
12864,-0.0389,-0.0718,-1.0086,1.4881,2.9748,-0.4682
12874,-0.0421,-0.0633,-1.0033,1.4118,2.4863,-0.4224
12884,-0.0357,-0.0640,-1.0089,1.1522,1.5550,-0.3002
12894,-0.0357,-0.0672,-1.0050,0.9690,0.3641,-0.3002
12904,-0.0357,-0.0689,-1.0065,0.8163,-0.5672,-0.4529
12914,-0.0340,-0.0765,-1.0043,0.5873,-1.1626,-0.5445
12924,-0.0374,-0.0828,-1.0115,0.3583,-1.3153,-0.5903
12934,-0.0335,-0.0789,-1.0048,0.0988,-0.9947,-0.5140
12944,-0.0357,-0.0784,-1.0019,0.0072,-0.3840,-0.3918
12954,-0.0234,-0.0747,-1.0086,-0.1150,0.1656,-0.2697
12964,-0.0335,-0.0672,-1.0074,-0.2371,0.4557,-0.3460
12974,-0.0448,-0.0684,-1.0026,-0.3134,0.6695,-0.3766
12984,-0.0298,-0.0711,-1.0079,-0.4356,0.6847,-0.4529
12994,-0.0315,-0.0740,-1.0062,-0.5119,0.5168,-0.5140
13004,-0.0416,-0.0735,-1.0028,-0.5119,0.5473,-0.6819
13014,-0.0308,-0.0684,-1.0077,-0.6188,0.5779,-0.6208
13024,-0.0401,-0.0738,-0.9982,-0.5272,0.6542,-0.6056
13034,-0.0367,-0.0679,-0.9973,-0.5730,0.5168,-0.5140
13044,-0.0418,-0.0577,-1.0273,-0.4050,0.2573,-0.4071
13054,-0.0421,-0.0733,-1.0128,-0.6035,-0.3992,-0.3918
13064,-0.0337,-0.0706,-1.0043,-0.7715,-0.6893,-0.4529
13074,-0.0418,-0.0750,-1.0053,-0.9394,-0.4450,-0.6361
13084,-0.0399,-0.0823,-1.0053,-1.0615,0.3641,-0.7124
13094,-0.0428,-0.0765,-1.0082,-1.1989,1.3565,-0.6056
13104,-0.0367,-0.0728,-1.0084,-1.3211,2.0282,-0.5445
13114,-0.0352,-0.0767,-1.0026,-1.5195,2.1962,-0.4682
13124,-0.0347,-0.0652,-1.0111,-1.5806,1.8908,-0.4376
13134,-0.0364,-0.0628,-1.0111,-1.6722,1.2954,-0.4529
13144,-0.0345,-0.0594,-1.0065,-1.5043,0.5626,-0.4987
13154,-0.0212,-0.0679,-1.0082,-1.5043,-0.2924,-0.4682
13164,-0.0301,-0.0642,-1.0028,-1.5959,-1.4069,-0.5750
13174,-0.0286,-0.0586,-1.0024,-1.4279,-2.1855,-0.4834
13184,-0.0391,-0.0645,-0.9999,-1.0310,-2.4298,-0.6208
13194,-0.0394,-0.0672,-0.9963,-0.3440,-1.6817,-0.3460
13204,-0.0389,-0.0696,-0.9995,0.4652,-0.3687,-0.2086
13214,-0.0394,-0.0630,-0.9999,1.3354,1.0664,-0.0102
13224,-0.0389,-0.0630,-1.0050,1.9614,1.6618,0.1883
13234,-0.0355,-0.0730,-1.0074,2.1751,1.5702,0.2494
13244,-0.0318,-0.0699,-1.0164,2.2209,1.2649,0.5089
13254,-0.0359,-0.0743,-1.0147,2.0682,0.6847,0.5242
13264,-0.0362,-0.0664,-1.0060,1.9308,0.1962,0.4326
13274,-0.0418,-0.0752,-1.0038,1.5797,-0.2618,0.3563
13284,-0.0328,-0.0850,-1.0026,1.2896,-0.2924,0.3868
13294,-0.0340,-0.0811,-1.0118,0.9232,-0.1092,0.4631
13304,-0.0320,-0.0760,-1.0060,0.5415,-0.2160,0.5089
13314,-0.0333,-0.0769,-1.0057,0.0377,-0.6282,0.4631
13324,-0.0345,-0.0708,-1.0089,-0.2982,-1.2084,0.2799
13334,-0.0320,-0.0794,-1.0069,-0.6340,-1.4069,0.2341
13344,-0.0256,-0.0750,-1.0026,-0.8631,-1.0863,0.1883
13354,-0.0301,-0.0725,-1.0040,-0.7867,-0.1702,0.0204
13364,-0.0443,-0.0728,-0.9987,-0.5577,1.2496,-0.0407
13374,-0.0313,-0.0638,-1.0082,-0.3898,2.2573,0.1731
13384,-0.0335,-0.0728,-1.0072,-0.1608,2.5015,0.1578
13394,-0.0411,-0.0686,-1.0048,-0.2066,2.1198,0.2494
13404,-0.0357,-0.0660,-1.0128,-0.2218,1.2496,0.2189
13414,-0.0340,-0.0664,-1.0062,-0.3287,0.1962,0.2494
13424,-0.0313,-0.0640,-1.0086,-0.2829,-0.5519,0.0815
13434,-0.0364,-0.0616,-0.9985,-0.1608,-1.2542,0.0509
13444,-0.0323,-0.0706,-1.0031,0.0377,-1.6664,0.0509
13454,-0.0345,-0.0708,-1.0055,0.1751,-1.9260,0.1120
13464,-0.0352,-0.0725,-1.0016,0.2362,-2.1397,0.2036
13474,-0.0291,-0.0752,-1.0045,0.2362,-2.2008,0.4479
13484,-0.0347,-0.0718,-1.0007,0.2362,-1.8954,0.3257
13494,-0.0362,-0.0735,-0.9982,0.3736,-1.1015,0.3105
13504,-0.0313,-0.0730,-0.9946,0.7095,0.3183,0.2952
13514,-0.0367,-0.0689,-0.9985,1.1827,1.8756,0.3105
13524,-0.0330,-0.0723,-1.0026,1.6560,3.0053,0.2494
13534,-0.0276,-0.0755,-1.0077,1.7171,3.2954,0.2494
13544,-0.0323,-0.0706,-1.0094,1.6866,2.5931,-0.1018
13554,-0.0374,-0.0767,-1.0106,1.3965,1.6771,-0.3308
13564,-0.0315,-0.0704,-1.0040,1.0606,0.8832,-0.3002
13574,-0.0396,-0.0735,-1.0024,0.7858,0.3489,-0.3460
13584,-0.0335,-0.0806,-1.0074,0.6484,0.3031,-0.2697
13594,-0.0328,-0.0747,-1.0060,0.6484,0.6695,-0.1781
13604,-0.0306,-0.0699,-1.0021,0.5873,0.8985,-0.2850
13614,-0.0367,-0.0760,-1.0036,0.3889,0.9901,-0.5598
13624,-0.0227,-0.0730,-1.0036,0.4041,1.1427,-0.6208
13634,-0.0303,-0.0823,-1.0026,0.3431,1.3718,-0.8346
13644,-0.0286,-0.0847,-1.0033,0.4805,2.0740,-0.7582
13654,-0.0369,-0.0701,-1.0045,0.7247,2.4557,-0.6056
13664,-0.0310,-0.0765,-1.0024,0.7858,2.5931,-0.4987
13674,-0.0247,-0.0755,-1.0040,0.7858,2.3947,-0.4987
13684,-0.0229,-0.0765,-1.0050,0.8011,2.1046,-0.5598
13694,-0.0320,-0.0806,-1.0060,0.7095,1.6466,-0.6972
13704,-0.0315,-0.0735,-0.9995,0.7858,1.3718,-0.6361
13714,-0.0237,-0.0721,-1.0040,0.9079,1.5397,-0.2697
13724,-0.0335,-0.0733,-1.0048,0.9690,1.4176,-0.4376
13734,-0.0313,-0.0721,-1.0055,1.1217,1.3870,-0.2850
13744,-0.0308,-0.0738,-1.0099,1.1980,1.2954,-0.1323
13754,-0.0286,-0.0733,-1.0118,1.0911,0.7305,-0.1781
13764,-0.0259,-0.0760,-1.0011,0.9232,0.1656,-0.0407
13774,-0.0271,-0.0743,-1.0062,0.6484,-0.0328,0.0204
13784,-0.0308,-0.0806,-0.9975,0.6179,-0.2466,0.0967
13794,-0.0269,-0.0811,-1.0111,0.5873,-0.3534,-0.0407
13804,-0.0247,-0.0716,-1.0033,0.5415,-0.5366,-0.1781
13814,-0.0357,-0.0762,-1.0050,0.5263,-0.7046,-0.2086
13824,-0.0274,-0.0847,-1.0106,0.3889,-0.8573,-0.1018
13834,-0.0229,-0.0799,-1.0108,0.2056,-0.8878,-0.1018
13844,-0.0323,-0.0786,-1.0118,-0.0539,-0.8115,-0.1018
13854,-0.0291,-0.0840,-0.9997,-0.2829,-0.6282,-0.0712
13864,-0.0350,-0.0835,-1.0033,-0.6035,-0.2160,-0.1018
13874,-0.0247,-0.0860,-1.0057,-0.7867,0.1809,0.0356
13884,-0.0301,-0.0826,-1.0106,-0.9547,0.1656,-0.0560
13894,-0.0249,-0.0762,-0.9973,-1.1226,-0.0939,-0.1170
13904,-0.0247,-0.0808,-1.0026,-1.1379,-0.2771,-0.2086
13914,-0.0283,-0.0813,-1.0084,-1.0768,-0.0786,-0.1934
13924,-0.0247,-0.0796,-1.0094,-1.1837,0.2115,-0.1781
13934,-0.0333,-0.0765,-1.0019,-1.1684,0.4557,-0.3308
13944,-0.0239,-0.0782,-1.0004,-1.0921,0.7305,-0.2544
13954,-0.0291,-0.0713,-1.0021,-1.0921,0.6542,-0.2392
13964,-0.0242,-0.0752,-1.0055,-1.1379,0.3947,-0.2850
13974,-0.0266,-0.0747,-1.0055,-1.1073,-0.2924,-0.1628
13984,-0.0283,-0.0750,-1.0069,-1.1684,-1.1015,-0.2392
13994,-0.0252,-0.0801,-1.0028,-1.1989,-1.5595,-0.2392
14004,-0.0249,-0.0745,-0.9997,-1.0768,-1.9260,-0.1170
14014,-0.0274,-0.0723,-0.9982,-0.8631,-1.9412,-0.0865
14024,-0.0345,-0.0769,-1.0040,-0.5730,-1.9107,-0.0712
14034,-0.0306,-0.0786,-0.9992,-0.2829,-1.4985,-0.1170
14044,-0.0256,-0.0769,-0.9995,0.0224,-0.8267,0.0204
14054,-0.0337,-0.0772,-1.0091,0.2209,-0.0786,0.0662
14064,-0.0269,-0.0806,-1.0024,0.3889,0.4710,-0.0560
14074,-0.0266,-0.0755,-1.0024,0.5568,0.8985,-0.1018
14084,-0.0301,-0.0747,-1.0016,0.5263,1.0817,-0.0712
14094,-0.0328,-0.0786,-1.0043,0.5263,1.0817,-0.2086
14104,-0.0296,-0.0721,-1.0069,0.3431,0.9901,-0.1628
14114,-0.0298,-0.0816,-1.0060,0.2973,1.0359,-0.1934
14124,-0.0303,-0.0791,-1.0084,0.1293,1.1885,-0.1170
14134,-0.0283,-0.0738,-0.9990,-0.0844,0.7916,-0.2086
14144,-0.0306,-0.0765,-1.0082,-0.2524,0.1046,-0.3460
14154,-0.0254,-0.0799,-1.0091,-0.3287,-0.1397,-0.2086
14164,-0.0286,-0.0850,-1.0118,-0.3287,-0.1550,-0.2239
14174,-0.0325,-0.0799,-1.0077,-0.2676,0.2267,-0.2239
14184,-0.0198,-0.0716,-0.9953,-0.0081,1.0359,-0.1170
14194,-0.0203,-0.0699,-1.0038,0.2973,1.5244,-0.1628
14204,-0.0256,-0.0745,-1.0050,0.7095,1.5550,-0.1323
14214,-0.0234,-0.0857,-1.0137,0.8469,1.3718,-0.2544
14224,-0.0252,-0.0850,-1.0111,0.8163,1.2038,-0.2392
14234,-0.0225,-0.0760,-1.0069,0.8621,1.3412,-0.2239
14244,-0.0281,-0.0689,-1.0040,1.0759,1.3565,-0.1323
14254,-0.0254,-0.0721,-1.0021,1.2896,1.1885,-0.1018
14264,-0.0286,-0.0782,-1.0072,1.2591,0.8069,-0.1323
14274,-0.0205,-0.0855,-1.0111,1.0759,0.5168,-0.0560
14284,-0.0293,-0.0801,-1.0173,0.7553,0.5931,-0.3002
14294,-0.0269,-0.0765,-0.9980,0.5568,0.5015,-0.2239
14304,-0.0239,-0.0796,-1.0011,0.2362,0.0740,-0.1170
14314,-0.0183,-0.0850,-1.0067,-0.0386,-0.2008,0.0204
14324,-0.0242,-0.0884,-1.0111,-0.0844,-0.0634,-0.1170
14334,-0.0276,-0.0818,-1.0140,-0.1608,0.3489,-0.2392
14344,-0.0274,-0.0743,-0.9995,-0.1302,0.7458,-0.1323
14354,-0.0188,-0.0801,-1.0065,-0.3440,0.5779,-0.0254
14364,-0.0183,-0.0933,-1.0111,-0.5730,0.2267,-0.2392
14374,-0.0144,-0.0796,-1.0096,-0.8325,-0.1702,-0.4529
14384,-0.0266,-0.0796,-1.0019,-0.9394,-0.1702,-0.6514
14394,-0.0296,-0.0733,-1.0007,-0.9547,-0.1092,-0.6361
14404,-0.0237,-0.0765,-1.0111,-1.0157,-0.1244,-0.2850
14414,-0.0239,-0.0821,-1.0108,-1.2447,-0.4603,-0.2239
14424,-0.0171,-0.0784,-1.0048,-1.5195,-0.7962,-0.1934
14434,-0.0296,-0.0725,-1.0057,-1.6722,-1.0099,-0.4376
14444,-0.0266,-0.0723,-1.0007,-1.6875,-1.0863,-0.3308
14454,-0.0237,-0.0767,-1.0002,-1.7485,-1.1015,-0.1323
14464,-0.0217,-0.0760,-1.0024,-1.7791,-1.1626,-0.1170
14474,-0.0274,-0.0733,-1.0050,-1.7485,-1.3458,-0.0865
14484,-0.0313,-0.0740,-1.0069,-1.6111,-1.4527,-0.0865
14494,-0.0207,-0.0752,-1.0045,-1.4737,-1.8649,0.1120
14504,-0.0288,-0.0789,-1.0089,-1.4432,-2.2924,0.0356
14514,-0.0239,-0.0750,-1.0033,-1.3669,-2.4756,0.0051
14524,-0.0286,-0.0784,-0.9992,-1.1226,-2.0634,0.0051
14534,-0.0271,-0.0725,-1.0014,-0.8783,-1.4527,-0.0560
14544,-0.0247,-0.0784,-1.0057,-0.5272,-0.7656,-0.0560
14554,-0.0205,-0.0794,-1.0062,-0.3745,-0.2771,0.0204
14564,-0.0274,-0.0784,-1.0069,-0.2524,0.1198,-0.0254
14574,-0.0271,-0.0762,-1.0014,-0.0844,0.3641,0.0051
14584,-0.0291,-0.0750,-1.0060,-0.0386,0.3947,-0.0560
14594,-0.0276,-0.0747,-1.0040,0.0682,0.3031,-0.0102
14604,-0.0215,-0.0760,-1.0074,-0.0386,-0.0786,-0.1476
14614,-0.0315,-0.0777,-1.0074,-0.0844,-0.3076,-0.3308
14624,-0.0264,-0.0752,-1.0040,-0.0844,-0.2771,-0.1781
14634,-0.0328,-0.0772,-0.9961,0.0224,-0.4145,-0.2697
14644,-0.0359,-0.0765,-1.0033,0.0988,-0.1702,-0.1628
14654,-0.0254,-0.0738,-1.0065,0.4194,0.0282,-0.1476
14664,-0.0286,-0.0711,-1.0019,0.4041,0.1351,-0.1476
14674,-0.0215,-0.0838,-1.0082,0.4957,0.1656,-0.1323
14684,-0.0310,-0.0801,-1.0074,0.3125,0.0435,-0.1781
14694,-0.0283,-0.0830,-1.0065,0.0835,0.2115,-0.2850
14704,-0.0200,-0.0730,-1.0026,0.0988,0.3489,-0.2392
14714,-0.0306,-0.0818,-0.9992,0.1446,0.4405,-0.2086
14724,-0.0274,-0.0791,-1.0084,0.2362,0.8527,-0.1628
14734,-0.0244,-0.0821,-1.0079,0.2056,1.2802,-0.1170
14744,-0.0215,-0.0708,-1.0069,0.2056,1.4481,-0.1934
14754,-0.0301,-0.0762,-1.0077,0.2209,1.2496,-0.3002
14764,-0.0254,-0.0826,-1.0057,0.0072,0.6389,-0.2392
14774,-0.0296,-0.0786,-1.0101,-0.3745,0.2573,-0.1934
14784,-0.0198,-0.0760,-1.0069,-0.3745,0.1656,-0.1476
14794,-0.0269,-0.0767,-1.0024,-0.2218,0.2878,-0.1781
14804,-0.0310,-0.0777,-0.9992,0.0530,0.5321,-0.1476
14814,-0.0283,-0.0833,-1.0009,0.1293,0.8985,-0.0865
14824,-0.0232,-0.0757,-1.0084,0.2056,0.9901,-0.1170
14834,-0.0220,-0.0747,-1.0091,0.2973,0.9290,-0.2697
14844,-0.0242,-0.0752,-1.0050,0.4957,0.6237,-0.2086
14854,-0.0266,-0.0777,-1.0062,0.4957,0.1962,-0.1934
14864,-0.0217,-0.0806,-1.0072,0.4347,0.0282,-0.1781
14874,-0.0396,-0.0843,-1.0026,0.3431,0.5015,-0.0102
14884,-0.0156,-0.0691,-1.0123,0.5415,0.9137,0.0204
14894,-0.0286,-0.0821,-1.0019,0.5873,0.7916,-0.4682
14904,-0.0239,-0.0791,-1.0069,0.6331,1.2954,-0.1781
14914,-0.0234,-0.0799,-1.0096,0.8163,1.6313,-0.1323
14924,-0.0207,-0.0791,-0.9965,0.7705,1.7992,-0.1628
14934,-0.0242,-0.0830,-1.0053,0.6484,2.0282,-0.1323
14944,-0.0198,-0.0779,-1.0024,0.6179,1.9672,-0.2239
14954,-0.0229,-0.0769,-1.0053,0.3583,1.2802,-0.3155
14964,-0.0242,-0.0794,-1.0103,0.0224,0.4405,-0.2697
14974,-0.0173,-0.0850,-1.0036,-0.3592,-0.2924,-0.2544
14984,-0.0274,-0.0762,-0.9949,-0.4814,-0.6588,-0.2850
14994,-0.0134,-0.0811,-1.0024,-0.4508,-0.3992,-0.2239
15004,-0.0276,-0.0738,-1.0137,-0.2676,0.0740,-0.1934
15014,-0.0168,-0.0811,-1.0074,-0.0692,0.4710,-0.2086
15024,-0.0247,-0.0826,-1.0077,0.0988,0.6542,-0.2239
15034,-0.0171,-0.0828,-1.0072,0.0835,0.5626,-0.1476
15044,-0.0210,-0.0821,-1.0031,-0.0386,0.3641,-0.2239
15054,-0.0222,-0.0760,-1.0014,0.0530,0.3641,-0.2086
15064,-0.0205,-0.0821,-1.0011,0.1140,0.2267,-0.1781
15074,-0.0237,-0.0755,-1.0084,0.3583,0.3489,-0.1323
15084,-0.0193,-0.0811,-0.9973,0.4652,0.3794,-0.1934
15094,-0.0166,-0.0765,-1.0118,0.4957,0.3489,-0.1628
15104,-0.0193,-0.0774,-1.0099,0.5568,0.1809,-0.1628
15114,-0.0247,-0.0757,-1.0043,0.3278,-0.1702,-0.2086
15124,-0.0193,-0.0769,-1.0094,0.1751,-0.4145,-0.2086
15134,-0.0210,-0.0833,-1.0062,-0.1455,-0.7504,-0.2392
15144,-0.0207,-0.0826,-1.0019,-0.3440,-0.9336,-0.2239
15154,-0.0222,-0.0845,-1.0016,-0.4966,-0.8878,-0.1018
15164,-0.0229,-0.0833,-1.0094,-0.5730,-0.6282,-0.0865
15174,-0.0225,-0.0855,-1.0060,-0.6188,-0.4145,0.0051
15184,-0.0178,-0.0804,-1.0057,-0.6798,-0.3229,-0.0407
15194,-0.0168,-0.0765,-1.0053,-0.8478,-0.4298,-0.1476
15204,-0.0259,-0.0804,-1.0057,-1.0005,-0.6740,-0.1781
15214,-0.0210,-0.0789,-1.0014,-1.1226,-0.7046,-0.2850
15224,-0.0171,-0.0823,-1.0024,-1.0005,-0.5061,-0.2697
15234,-0.0249,-0.0799,-1.0048,-0.9547,-0.2924,-0.2392
15244,-0.0200,-0.0865,-1.0084,-0.9089,-0.0786,-0.2697
15254,-0.0210,-0.0782,-1.0050,-0.8325,0.0893,-0.3002
15264,-0.0198,-0.0801,-1.0038,-0.7715,-0.0023,-0.2392
15274,-0.0225,-0.0718,-1.0011,-0.7562,-0.2771,-0.3155
15284,-0.0222,-0.0765,-1.0014,-0.7715,-0.6435,-0.3613
15294,-0.0252,-0.0818,-1.0074,-0.7715,-0.9031,-0.3155
15304,-0.0242,-0.0794,-1.0026,-0.6493,-1.0557,-0.2697
15314,-0.0318,-0.0818,-1.0074,-0.4966,-0.9336,-0.2086
