timestamp_ms,ax,ay,az,gx,gy,gz
3964,-0.0151,-0.0206,-1.0099,-0.0921,-0.2276,-0.0197
3974,-0.0156,-0.0172,-1.0074,0.0758,-0.3955,-0.1113
3984,-0.0141,-0.0223,-1.0057,0.1063,-0.4260,-0.0808
3994,-0.0122,-0.0137,-1.0099,0.1674,-0.3192,-0.0044
4004,-0.0048,-0.0220,-1.0144,0.1063,-0.2276,0.1024
4014,-0.0100,-0.0135,-1.0089,0.0300,-0.1207,0.0566
4024,-0.0090,-0.0269,-1.0057,-0.0311,-0.1207,0.0261
4034,-0.0080,-0.0203,-1.0057,-0.1074,-0.2428,0.0108
4044,-0.0119,-0.0213,-1.0086,-0.2295,-0.1665,0.0719
4054,-0.0134,-0.0201,-1.0043,-0.2906,-0.0444,0.1024
4064,-0.0136,-0.0193,-1.0069,-0.3822,0.0015,0.0566
4074,-0.0122,-0.0259,-1.0048,-0.2753,-0.0138,0.0261
4084,-0.0134,-0.0250,-1.0004,-0.2906,-0.0749,-0.0655
4094,-0.0109,-0.0174,-1.0050,-0.0463,-0.1970,-0.0960
4104,-0.0168,-0.0240,-1.0099,0.0605,-0.3344,-0.0655
4114,-0.0185,-0.0191,-1.0077,0.0758,-0.5024,-0.0808
4124,-0.0168,-0.0157,-1.0079,0.0605,-0.4566,-0.1724
4134,-0.0232,-0.0128,-0.9961,-0.0463,-0.2734,-0.1266
4144,-0.0158,-0.0191,-1.0123,-0.1837,-0.0138,-0.0502
4154,-0.0183,-0.0145,-1.0067,-0.1532,0.1236,-0.0960
4164,-0.0166,-0.0147,-1.0057,-0.1685,0.1694,-0.0197
4174,-0.0090,-0.0152,-1.0072,-0.1074,0.2152,-0.0808
4184,-0.0131,-0.0184,-1.0019,-0.0921,0.0931,-0.0197
4194,-0.0151,-0.0140,-1.0069,-0.0158,0.0320,-0.0502
4204,-0.0090,-0.0176,-1.0149,0.3048,0.0320,-0.0808
4214,-0.0122,-0.0237,-1.0048,0.3811,-0.1054,-0.0655
4224,-0.0124,-0.0213,-0.9999,0.4880,-0.2734,-0.1113
4234,-0.0070,-0.0303,-1.0106,0.3506,-0.4871,-0.1266
4244,-0.0114,-0.0247,-1.0079,0.1979,-0.6398,-0.0808
4254,-0.0114,-0.0208,-1.0086,0.0453,-0.4718,-0.1266
4264,-0.0178,-0.0189,-1.0057,-0.0463,-0.1970,-0.0655
4274,-0.0119,-0.0169,-1.0072,-0.0311,-0.0596,0.0108
4284,-0.0185,-0.0157,-1.0028,-0.0921,-0.0596,-0.0044
4294,-0.0180,-0.0189,-1.0002,-0.1379,-0.1818,-0.0808
4304,-0.0188,-0.0137,-1.0057,-0.0921,-0.2734,-0.0655
4314,-0.0212,-0.0189,-1.0028,-0.1379,-0.1970,-0.0655
4324,-0.0149,-0.0128,-1.0091,-0.0311,-0.0749,-0.1266
4334,-0.0176,-0.0167,-1.0077,0.0147,0.0320,-0.1266
4344,-0.0131,-0.0169,-1.0099,0.1521,0.0625,-0.0960
4354,-0.0151,-0.0237,-1.0118,0.1827,0.1541,0.0108
4364,-0.0131,-0.0218,-1.0099,0.1521,0.3221,-0.0197
4374,-0.0144,-0.0193,-1.0065,0.1674,0.3373,-0.0350
4384,-0.0131,-0.0186,-1.0048,0.2132,0.3984,-0.0655
4394,-0.0124,-0.0186,-1.0072,0.3811,0.5816,0.0108
4404,-0.0166,-0.0191,-1.0026,0.4422,0.7495,-0.0808
4414,-0.0100,-0.0128,-1.0118,0.4117,0.8106,-0.1113
4424,-0.0109,-0.0291,-1.0111,0.2743,0.8411,-0.0655
4434,-0.0129,-0.0240,-1.0067,-0.0769,0.9785,-0.0655
4444,-0.0141,-0.0213,-1.0079,-0.1837,0.9480,-0.0502
4454,-0.0122,-0.0191,-1.0086,-0.3059,0.9938,0.0566
4464,-0.0104,-0.0186,-1.0113,-0.3517,0.7190,0.1024
4474,-0.0082,-0.0184,-1.0086,-0.2295,0.4900,0.0566
4484,-0.0156,-0.0147,-1.0074,-0.1837,0.3221,0.0414
4494,-0.0102,-0.0123,-1.0067,-0.1227,0.2152,0.0261
4504,-0.0139,-0.0172,-1.0101,-0.1685,0.0625,-0.0502
4514,-0.0112,-0.0154,-1.0067,0.0147,0.0625,-0.0044
4524,-0.0141,-0.0206,-1.0118,0.1216,0.0625,-0.1418
4534,-0.0131,-0.0179,-1.0115,0.1674,0.1236,-0.1113
4544,-0.0095,-0.0196,-1.0094,0.1063,0.2457,-0.0350
4554,-0.0100,-0.0169,-1.0118,0.0605,0.3221,-0.0350
4564,-0.0129,-0.0225,-1.0137,-0.1074,0.0167,0.0414
4574,-0.0117,-0.0174,-1.0072,-0.1379,-0.2276,0.0566
4584,-0.0141,-0.0179,-1.0053,-0.1379,-0.4260,0.0108
4594,-0.0141,-0.0169,-1.0033,-0.0463,-0.5024,-0.0197
4604,-0.0153,-0.0191,-1.0091,0.1521,-0.1818,-0.0197
4614,-0.0126,-0.0167,-1.0011,0.1063,0.1236,0.0108
4624,-0.0085,-0.0157,-1.0077,0.0758,0.2457,-0.0808
4634,-0.0131,-0.0220,-1.0108,-0.0158,-0.0138,-0.1876
4644,-0.0112,-0.0147,-1.0069,-0.0616,-0.1818,-0.0808
4654,-0.0136,-0.0201,-1.0057,-0.1074,-0.2581,-0.0960
4664,-0.0141,-0.0179,-1.0031,-0.0921,-0.1360,-0.0808
4674,-0.0102,-0.0179,-1.0077,-0.0311,0.0625,-0.0502
4684,-0.0149,-0.0198,-1.0106,0.1369,0.0625,0.0261
4694,-0.0107,-0.0174,-1.0055,0.1674,0.0473,-0.0197
4704,-0.0095,-0.0167,-1.0130,0.2590,0.0015,-0.1113
4714,-0.0171,-0.0169,-1.0002,0.3506,0.0625,-0.1418
4724,-0.0153,-0.0191,-1.0043,0.3201,0.1847,-0.0044
4734,-0.0183,-0.0154,-1.0060,0.3506,0.3526,-0.0197
4744,-0.0104,-0.0211,-1.0053,0.4117,0.5511,-0.0044
4754,-0.0102,-0.0228,-1.0108,0.3506,0.7343,-0.0197
4764,-0.0092,-0.0215,-1.0043,0.3353,0.7343,-0.1113
4774,-0.0073,-0.0242,-1.0144,0.2285,0.5358,-0.0502
4784,-0.0087,-0.0218,-1.0130,0.1521,0.1999,-0.0502
4794,-0.0104,-0.0201,-1.0169,0.1674,-0.1818,-0.0808
4804,-0.0112,-0.0145,-1.0101,0.0758,-0.5024,-0.0197
4814,-0.0122,-0.0184,-1.0031,0.1521,-0.7008,-0.0960
4824,-0.0171,-0.0198,-1.0021,0.2132,-0.5482,-0.0808
4834,-0.0149,-0.0189,-1.0091,0.0453,-0.2428,-0.0044
4844,-0.0156,-0.0201,-1.0120,-0.2143,0.1236,0.0719
4854,-0.0139,-0.0164,-1.0067,-0.2448,0.2915,-0.0350
4864,-0.0104,-0.0203,-1.0123,-0.1990,0.2305,-0.0960
4874,-0.0122,-0.0189,-1.0067,-0.1227,0.1389,-0.0808
4884,-0.0124,-0.0154,-1.0065,-0.1685,-0.1360,-0.0502
4894,-0.0176,-0.0176,-1.0031,-0.1837,-0.3039,-0.0350
4904,-0.0122,-0.0154,-1.0101,-0.0921,-0.2123,-0.1571
4914,-0.0161,-0.0172,-1.0111,-0.1074,-0.0291,-0.0808
4924,-0.0129,-0.0203,-1.0086,0.0300,0.1694,-0.0044
4934,-0.0087,-0.0203,-1.0082,0.1827,0.3068,-0.0960
4944,-0.0129,-0.0230,-1.0132,0.0300,0.2305,-0.0502
4954,-0.0126,-0.0167,-1.0077,-0.1379,0.1541,-0.1266
4964,-0.0102,-0.0198,-1.0024,-0.1685,0.1694,-0.0808
4974,-0.0131,-0.0208,-0.9975,-0.2143,0.2610,-0.0502
4984,-0.0134,-0.0169,-1.0106,-0.2601,0.5358,0.0261
4994,-0.0139,-0.0176,-1.0079,-0.1074,0.7343,0.0719
5004,-0.0068,-0.0193,-1.0082,0.0300,0.6732,0.0872
5014,-0.0073,-0.0191,-1.0086,0.0147,0.4137,-0.1418
5024,-0.0055,-0.0250,-1.0188,-0.0158,-0.0138,-0.1724
5034,-0.0117,-0.0169,-1.0115,-0.2143,-0.2276,-0.1113
5044,-0.0055,-0.0230,-1.0101,-0.1532,-0.2886,-0.0960
5054,-0.0144,-0.0162,-1.0048,-0.1685,-0.5482,-0.0502
5064,-0.0134,-0.0154,-1.0062,-0.0463,-0.4413,0.0261
5074,-0.0041,-0.0169,-1.0094,-0.1074,-0.3802,0.0261
5084,-0.0092,-0.0198,-1.0091,-0.1685,-0.4718,0.0108
5094,-0.0107,-0.0228,-1.0089,-0.2143,-0.7008,-0.0808
5104,-0.0153,-0.0201,-1.0079,-0.2753,-0.7772,-0.0502
5114,-0.0168,-0.0186,-1.0019,-0.2906,-0.9298,-0.0044
5124,-0.0134,-0.0196,-1.0115,-0.2906,-0.8230,-0.0350
5134,-0.0185,-0.0167,-1.0072,-0.2448,-0.7314,-0.1571
5144,-0.0141,-0.0140,-0.9990,-0.1379,-0.4108,-0.0502
5154,-0.0185,-0.0213,-1.0094,-0.0463,-0.3802,-0.0350
5164,-0.0183,-0.0164,-1.0028,0.0605,-0.3039,-0.0044
5174,-0.0178,-0.0164,-1.0096,0.1216,-0.1360,-0.0044
5184,-0.0176,-0.0179,-1.0060,0.1827,-0.1360,-0.0502
5194,-0.0139,-0.0172,-1.0062,0.2437,0.0167,-0.0502
5204,-0.0161,-0.0186,-1.0125,0.2895,0.1541,-0.0960
5214,-0.0163,-0.0184,-1.0055,0.4117,0.2152,-0.0655
5224,-0.0217,-0.0172,-1.0045,0.5033,0.5205,-0.0044
5234,-0.0144,-0.0186,-1.0065,0.3201,0.7495,-0.0350
5244,-0.0097,-0.0206,-1.0130,0.2743,1.0091,-0.0197
5254,-0.0038,-0.0211,-1.0099,0.2437,0.9480,0.0566
5264,-0.0114,-0.0259,-1.0118,0.1827,0.7953,-0.0044
5274,-0.0136,-0.0223,-1.0142,0.1827,0.4595,0.0261
5284,-0.0153,-0.0223,-1.0057,0.1063,0.3068,0.0261
5294,-0.0124,-0.0245,-1.0031,0.0911,0.3679,-0.0197
5304,-0.0141,-0.0174,-1.0094,0.0453,0.5053,-0.0808
5314,-0.0131,-0.0179,-1.0043,-0.0311,0.5205,-0.1418
5324,-0.0141,-0.0147,-1.0111,-0.0005,0.4442,-0.1571
5334,-0.0153,-0.0179,-1.0132,0.1216,0.3679,-0.1724
5344,-0.0117,-0.0198,-1.0055,0.1063,0.2610,-0.0502
5354,-0.0117,-0.0184,-1.0082,0.0911,0.1389,-0.0350
5364,-0.0141,-0.0225,-1.0147,-0.0921,-0.0138,-0.0655
5374,-0.0092,-0.0228,-1.0096,-0.2295,-0.0902,-0.0502
5384,-0.0075,-0.0174,-1.0091,-0.4127,-0.2734,-0.1571
5394,-0.0112,-0.0140,-1.0050,-0.4433,-0.4718,-0.0808
5404,-0.0117,-0.0162,-1.0053,-0.4280,-0.4566,-0.1113
5414,-0.0119,-0.0169,-1.0053,-0.4127,-0.4413,-0.0502
5424,-0.0139,-0.0186,-1.0178,-0.4280,-0.3802,-0.0197
5434,-0.0176,-0.0179,-1.0057,-0.4127,-0.4718,-0.0044
5444,-0.0141,-0.0162,-1.0086,-0.1379,-0.5787,-0.0502
5454,-0.0210,-0.0135,-1.0050,0.1063,-0.5329,-0.1571
5464,-0.0217,-0.0140,-1.0062,0.2437,-0.2734,-0.1113
5474,-0.0217,-0.0193,-0.9992,0.3353,0.2152,-0.0502
5484,-0.0131,-0.0150,-1.0077,0.1979,0.5816,-0.0350
5494,-0.0136,-0.0137,-1.0125,0.2895,0.7801,-0.0197
5504,-0.0117,-0.0167,-1.0111,0.2132,0.7801,-0.0044
5514,-0.0119,-0.0247,-1.0123,0.1216,0.6732,-0.0808
5524,-0.0126,-0.0281,-1.0103,0.1216,0.2610,-0.1571
5534,-0.0134,-0.0218,-1.0096,-0.1990,0.0625,-0.1418
5544,-0.0107,-0.0193,-1.0067,-0.3059,-0.1207,-0.1418
5554,-0.0092,-0.0223,-1.0021,-0.4738,-0.3039,-0.1418
5564,-0.0097,-0.0164,-1.0007,-0.4127,-0.4871,-0.0655
5574,-0.0131,-0.0184,-1.0019,-0.4891,-0.5787,-0.0960
5584,-0.0173,-0.0179,-1.0082,-0.3822,-0.4108,-0.0197
5594,-0.0146,-0.0128,-1.0108,-0.3364,-0.2123,0.0872
5604,-0.0117,-0.0150,-1.0055,-0.2906,0.0778,-0.0655
5614,-0.0129,-0.0181,-1.0099,-0.2295,0.2610,-0.0960
5624,-0.0144,-0.0159,-1.0057,-0.1837,0.1389,-0.0197
5634,-0.0119,-0.0147,-1.0082,-0.0921,0.0015,-0.0655
5644,-0.0134,-0.0198,-1.0072,0.0300,-0.2886,-0.1113
5654,-0.0114,-0.0150,-1.0113,0.0605,-0.5940,-0.1266
5664,-0.0161,-0.0132,-1.0069,-0.0158,-0.7161,-0.0655
5674,-0.0190,-0.0198,-1.0166,-0.0005,-0.8993,-0.0502
5684,-0.0203,-0.0211,-1.0094,0.0147,-0.8382,-0.0655
5694,-0.0234,-0.0106,-0.9949,0.0605,-0.5024,-0.1266
5704,-0.0158,-0.0225,-1.0111,0.1216,0.0473,-0.0044
5714,-0.0149,-0.0196,-1.0045,0.2285,0.4289,-0.0655
5724,-0.0126,-0.0172,-1.0048,0.2285,0.6885,0.0261
5734,-0.0109,-0.0240,-1.0096,0.2895,0.9022,0.0566
5744,-0.0141,-0.0225,-1.0086,0.2590,0.9480,0.0566
5754,-0.0141,-0.0247,-1.0062,0.1369,0.6885,-0.0197
5764,-0.0134,-0.0162,-1.0060,-0.0311,0.3984,-0.0197
5774,-0.0136,-0.0201,-1.0118,-0.0158,0.2915,-0.0808
5784,-0.0173,-0.0176,-1.0084,0.0605,0.4289,0.0566
5794,-0.0122,-0.0157,-1.0072,0.1979,0.7037,-0.0044
5804,-0.0158,-0.0137,-1.0065,0.3506,0.9480,-0.0502
5814,-0.0109,-0.0137,-1.0128,0.3964,1.0396,-0.0655
5824,-0.0134,-0.0154,-1.0157,0.3048,0.8259,-0.1418
5834,-0.0136,-0.0237,-1.0077,0.2132,0.7648,-0.1266
5844,-0.0200,-0.0218,-1.0048,0.1521,0.6427,-0.0960
5854,-0.0126,-0.0220,-1.0089,0.0758,0.5205,-0.1113
5864,-0.0141,-0.0211,-1.0096,0.1063,0.3679,-0.0197
5874,-0.0095,-0.0228,-1.0086,0.1827,0.3526,0.0872
5884,-0.0124,-0.0198,-0.9985,0.1674,0.2457,0.0108
5894,-0.0097,-0.0213,-1.0099,-0.0311,0.2152,0.0414
5904,-0.0134,-0.0196,-1.0099,-0.0921,0.3373,0.1177
5914,-0.0173,-0.0191,-1.0060,-0.1532,0.5205,0.0719
5924,-0.0136,-0.0201,-1.0101,-0.0769,0.7495,0.0566
5934,-0.0136,-0.0162,-1.0103,-0.1227,0.7190,0.0261
5944,-0.0139,-0.0198,-1.0099,0.0147,0.5053,-0.0502
5954,-0.0158,-0.0167,-1.0123,0.0147,0.3831,-0.0655
5964,-0.0126,-0.0181,-1.0096,-0.0158,0.0320,-0.1113
5974,-0.0156,-0.0123,-1.0040,-0.1837,-0.3802,-0.0502
5984,-0.0124,-0.0108,-1.0099,-0.1532,-0.5024,-0.0655
5994,-0.0176,-0.0189,-1.0101,-0.1227,-0.5940,-0.0502
6004,-0.0146,-0.0186,-1.0053,-0.0921,-0.4260,-0.0808
6014,-0.0112,-0.0193,-1.0079,0.0911,-0.2734,0.0719
6024,-0.0149,-0.0213,-1.0024,0.1979,-0.1818,-0.0197
6034,-0.0119,-0.0237,-1.0021,0.2895,-0.0596,0.0566
6044,-0.0114,-0.0245,-1.0089,0.4575,0.2305,0.0414
6054,-0.0126,-0.0218,-1.0036,0.4575,0.2763,0.0414
6064,-0.0158,-0.0167,-1.0002,0.4117,0.3526,-0.0808
6074,-0.0095,-0.0223,-1.0086,0.2743,0.2763,-0.1113
6084,-0.0163,-0.0179,-1.0142,0.0911,0.2305,-0.1113
6094,-0.0149,-0.0223,-1.0111,-0.0158,0.1236,-0.0044
6104,-0.0104,-0.0174,-1.0057,-0.0005,-0.0444,-0.0197
6114,-0.0087,-0.0164,-1.0144,-0.0769,-0.0291,0.0414
6124,-0.0144,-0.0213,-1.0067,-0.0158,0.0015,0.0566
6134,-0.0095,-0.0186,-0.9980,0.0605,0.1694,0.0414
6144,-0.0166,-0.0132,-1.0091,0.1521,0.2457,0.0414
6154,-0.0134,-0.0208,-1.0094,0.2132,0.3373,0.1024
6164,-0.0131,-0.0189,-1.0069,0.0453,0.4595,0.0108
6174,-0.0063,-0.0201,-1.0135,-0.0616,0.2610,-0.0197
6184,-0.0129,-0.0206,-1.0089,-0.3364,0.1389,-0.0197
6194,-0.0158,-0.0218,-0.9985,-0.3059,0.1083,-0.0197
6204,-0.0082,-0.0203,-1.0086,-0.1379,0.1541,-0.0197
6214,-0.0139,-0.0145,-1.0050,-0.1227,0.1236,-0.0502
6224,-0.0176,-0.0230,-1.0024,-0.0921,0.1694,-0.1266
6234,-0.0112,-0.0145,-1.0089,0.0300,0.3068,-0.0960
6244,-0.0144,-0.0113,-1.0108,-0.0005,0.2915,-0.0808
6254,-0.0107,-0.0198,-1.0077,-0.0158,0.1999,-0.0502
6264,-0.0153,-0.0176,-1.0140,-0.0005,-0.0444,-0.0502
6274,-0.0161,-0.0193,-1.0040,-0.0463,0.0015,-0.0808
6284,-0.0171,-0.0169,-1.0069,-0.1685,0.1847,-0.0350
6294,-0.0119,-0.0159,-1.0084,-0.2906,0.3068,-0.0044
6304,-0.0129,-0.0157,-1.0137,-0.3517,0.4289,0.0261
6314,-0.0124,-0.0140,-1.0118,-0.2906,0.4289,0.0872
6324,-0.0050,-0.0137,-1.0079,-0.0921,0.4747,0.0414
6334,-0.0146,-0.0147,-1.0002,0.0605,0.2763,-0.0044
6344,-0.0146,-0.0111,-1.0007,0.0453,0.2610,-0.0960
6354,-0.0114,-0.0157,-1.0094,0.0605,0.1847,-0.0960
6364,-0.0129,-0.0189,-1.0048,0.1063,0.1694,-0.0655
6374,-0.0097,-0.0091,-1.0016,0.2590,0.2152,-0.0502
6384,-0.0097,-0.0254,-1.0079,0.3811,0.0625,-0.0502
6394,-0.0161,-0.0225,-1.0086,0.4727,0.0778,-0.1266
6404,-0.0119,-0.0215,-1.0082,0.3811,0.1083,-0.0960
6414,-0.0114,-0.0279,-1.0118,0.2285,0.1541,-0.0044
6424,-0.0104,-0.0196,-1.0062,0.0300,0.2763,-0.0502
6434,-0.0126,-0.0181,-1.0019,-0.2143,0.5053,-0.0044
6444,-0.0109,-0.0167,-1.0045,-0.2448,0.6579,0.0872
6454,-0.0109,-0.0159,-1.0057,-0.0921,0.6579,0.0108
6464,-0.0102,-0.0189,-1.0082,0.1063,0.6121,-0.0044
6474,-0.0112,-0.0176,-1.0103,0.1979,0.3984,-0.0044
6484,-0.0126,-0.0223,-1.0094,0.1674,0.1541,0.0108
6494,-0.0141,-0.0206,-1.0038,0.1521,-0.1360,-0.0655
6504,-0.0114,-0.0206,-1.0118,0.1521,-0.3039,0.0414
6514,-0.0163,-0.0159,-1.0040,0.1369,-0.2886,-0.0502
6524,-0.0114,-0.0203,-1.0045,0.1979,-0.1665,-0.0197
6534,-0.0112,-0.0154,-1.0103,0.2437,-0.0138,-0.1113
6544,-0.0095,-0.0181,-1.0074,0.2437,0.0015,-0.0350
6554,-0.0153,-0.0189,-1.0094,0.1979,0.0320,0.0414
6564,-0.0058,-0.0201,-1.0125,0.1369,0.0778,0.0719
6574,-0.0109,-0.0247,-1.0166,0.0758,0.0015,-0.0044
6584,-0.0126,-0.0208,-1.0050,0.0300,-0.1207,-0.0655
6594,-0.0109,-0.0223,-0.9995,-0.0616,-0.1665,0.0108
6604,-0.0153,-0.0196,-1.0045,0.0911,-0.1360,0.0261
6614,-0.0139,-0.0203,-1.0096,0.0453,-0.0138,0.1177
6624,-0.0124,-0.0228,-1.0120,-0.1227,0.1083,0.1024
6634,-0.0131,-0.0201,-1.0045,-0.1379,0.0625,-0.0960
6644,-0.0161,-0.0201,-1.0118,-0.2906,0.0015,-0.0044
6654,-0.0129,-0.0211,-1.0089,-0.2906,-0.0749,-0.0044
6664,-0.0102,-0.0201,-1.0084,-0.3517,-0.1054,-0.0502
6674,-0.0161,-0.0184,-1.0084,-0.3669,-0.1665,0.0414
6684,-0.0168,-0.0123,-0.9997,-0.4433,-0.2123,-0.0655
6694,-0.0114,-0.0196,-1.0074,-0.3364,-0.0902,-0.0655
6704,-0.0129,-0.0159,-1.0101,-0.4280,-0.1665,-0.0960
6714,-0.0065,-0.0157,-1.0154,-0.4280,-0.3802,-0.1724
6724,-0.0117,-0.0201,-1.0091,-0.4891,-0.6856,-0.2182
6734,-0.0149,-0.0142,-1.0084,-0.5349,-0.6550,-0.1724
6744,-0.0180,-0.0096,-1.0011,-0.4585,-0.5634,-0.0960
6754,-0.0146,-0.0169,-1.0089,-0.2143,-0.3039,-0.0655
6764,-0.0139,-0.0135,-1.0040,0.0147,0.0473,0.0108
6774,-0.0168,-0.0145,-1.0036,0.2590,0.3373,-0.0197
6784,-0.0207,-0.0191,-1.0128,0.2285,0.5358,-0.0044
6794,-0.0100,-0.0181,-1.0084,0.3201,0.6427,0.0108
6804,-0.0158,-0.0213,-1.0055,0.2285,0.4747,-0.0502
6814,-0.0134,-0.0191,-1.0128,0.1216,0.3068,0.0566
6824,-0.0168,-0.0215,-1.0050,0.1827,0.2152,0.0261
6834,-0.0112,-0.0203,-1.0084,0.1674,0.1847,0.0108
6844,-0.0139,-0.0206,-1.0053,0.0911,0.1847,0.0108
6854,-0.0095,-0.0184,-1.0164,0.0300,0.0167,-0.0197
6864,-0.0058,-0.0169,-1.0115,0.1369,-0.2123,-0.0197
6874,-0.0119,-0.0181,-1.0130,-0.0005,-0.2886,-0.0655
6884,-0.0114,-0.0172,-1.0053,-0.0311,-0.4566,-0.0960
6894,-0.0134,-0.0189,-1.0103,-0.2143,-0.5482,-0.0350
6904,-0.0151,-0.0193,-1.0077,-0.2906,-0.6092,-0.0655
6914,-0.0203,-0.0167,-1.0055,-0.0616,-0.4566,-0.0350
6924,-0.0176,-0.0123,-0.9982,-0.0005,-0.0444,-0.0655
6934,-0.0107,-0.0220,-1.0031,0.1063,0.2305,-0.0044
6944,-0.0163,-0.0211,-1.0055,0.2437,0.3221,0.0108
6954,-0.0134,-0.0189,-1.0057,0.1216,0.4595,-0.0197
6964,-0.0124,-0.0150,-1.0031,-0.1074,0.5205,0.0566
6974,-0.0153,-0.0193,-1.0108,-0.1685,0.4137,0.0566
6984,-0.0176,-0.0140,-1.0065,-0.2295,0.2610,-0.0044
6994,-0.0131,-0.0172,-1.0074,-0.1837,0.2915,0.0566
7004,-0.0090,-0.0181,-1.0094,-0.0463,0.2305,0.0108
7014,-0.0139,-0.0176,-1.0101,0.0453,0.1389,-0.0197
7024,-0.0122,-0.0184,-1.0111,0.0605,0.0167,-0.0044
7034,-0.0126,-0.0176,-1.0113,0.0147,-0.1207,-0.0350
7044,-0.0185,-0.0215,-1.0074,-0.1379,-0.1360,-0.1418
7054,-0.0144,-0.0186,-1.0065,-0.1685,0.1541,-0.1418
7064,-0.0134,-0.0220,-1.0091,-0.1837,0.3679,-0.0044
7074,-0.0180,-0.0206,-1.0072,-0.1074,0.4442,-0.0655
7084,-0.0126,-0.0213,-1.0120,-0.0616,0.4900,-0.0502
7094,-0.0109,-0.0162,-1.0128,-0.0311,0.3373,0.0108
7104,-0.0119,-0.0159,-1.0120,0.0147,-0.0138,-0.1418
7114,-0.0085,-0.0191,-1.0069,-0.0158,-0.2734,-0.0808
7124,-0.0153,-0.0147,-0.9987,-0.0463,-0.5176,-0.2029
7134,-0.0126,-0.0186,-1.0036,-0.0158,-0.5787,-0.1724
7144,-0.0134,-0.0203,-1.0050,0.0453,-0.4413,-0.1571
7154,-0.0168,-0.0169,-1.0053,0.0300,-0.1360,-0.0655
7164,-0.0141,-0.0176,-1.0125,-0.0311,0.0931,0.0566
7174,-0.0131,-0.0189,-1.0164,-0.0463,0.1847,-0.0044
7184,-0.0080,-0.0176,-1.0128,0.1674,0.2457,0.0108
7194,-0.0107,-0.0179,-1.0140,0.2437,-0.0138,-0.0197
7204,-0.0055,-0.0189,-1.0072,0.2132,-0.1207,-0.0960
7214,-0.0107,-0.0157,-1.0096,0.0605,-0.2734,-0.1113
7224,-0.0134,-0.0247,-1.0009,0.0300,-0.2428,-0.0960
7234,-0.0112,-0.0215,-1.0053,-0.0005,-0.0749,-0.0197
7244,-0.0168,-0.0225,-1.0065,-0.1074,0.1541,-0.0197
7254,-0.0136,-0.0242,-1.0024,-0.0769,0.2763,-0.0808
7264,-0.0109,-0.0215,-1.0128,-0.1227,0.1847,-0.0044
7274,-0.0144,-0.0228,-1.0140,-0.0921,0.1236,-0.0350
7284,-0.0129,-0.0142,-1.0125,-0.1990,-0.1360,-0.1113
7294,-0.0122,-0.0123,-1.0086,-0.1685,-0.3955,-0.0808
7304,-0.0168,-0.0140,-1.0053,-0.1074,-0.2886,-0.0960
7314,-0.0183,-0.0174,-1.0011,-0.0005,-0.0902,-0.0808
7324,-0.0151,-0.0174,-1.0050,-0.0769,0.2915,-0.0655
7334,-0.0122,-0.0162,-1.0111,-0.1227,0.4900,-0.0044
7344,-0.0126,-0.0198,-1.0135,-0.0311,0.3526,-0.0044
7354,-0.0102,-0.0191,-1.0166,0.0758,0.2305,-0.0044
7364,-0.0200,-0.0167,-1.0130,0.0758,0.3068,-0.0350
7374,-0.0149,-0.0230,-1.0040,-0.0463,0.4137,-0.0044
7384,-0.0153,-0.0128,-1.0045,0.0147,0.4747,-0.0655
7394,-0.0126,-0.0174,-1.0099,0.1063,0.6427,-0.0502
7404,-0.0153,-0.0225,-1.0024,0.2895,0.6121,0.0108
7414,-0.0119,-0.0215,-1.0113,0.3048,0.6885,0.0414
7424,-0.0144,-0.0184,-1.0140,0.0911,0.4137,0.0414
7434,-0.0141,-0.0184,-1.0120,-0.0616,0.1847,0.0261
7444,-0.0144,-0.0191,-1.0079,-0.1685,0.1541,0.0108
7454,-0.0068,-0.0206,-1.0077,-0.1379,0.1694,0.0261
7464,-0.0144,-0.0164,-1.0045,-0.1685,0.1389,0.0719
7474,-0.0151,-0.0159,-1.0089,-0.1379,0.1389,-0.0655
7484,-0.0176,-0.0152,-1.0069,-0.0769,0.0931,-0.1113
7494,-0.0136,-0.0169,-1.0091,-0.1532,0.0320,-0.0350
7504,-0.0131,-0.0176,-1.0062,-0.0921,0.0931,-0.0197
7514,-0.0168,-0.0123,-1.0055,-0.1532,0.0015,0.0108
7524,-0.0104,-0.0225,-1.0132,-0.1685,-0.0902,0.0108
7534,-0.0087,-0.0181,-1.0113,-0.0769,-0.2886,-0.0655
7544,-0.0126,-0.0113,-1.0074,-0.1074,-0.5024,-0.1266
7554,-0.0139,-0.0147,-1.0062,-0.0769,-0.6092,-0.1876
7564,-0.0131,-0.0152,-1.0062,0.1216,-0.5634,-0.2334
7574,-0.0141,-0.0176,-1.0115,0.3811,-0.6550,-0.2182
7584,-0.0117,-0.0218,-1.0123,0.3201,-0.8077,-0.0197
7594,-0.0188,-0.0198,-1.0067,0.2132,-0.6398,-0.0808
7604,-0.0166,-0.0176,-0.9990,0.1827,-0.4718,-0.1418
7614,-0.0126,-0.0184,-1.0048,-0.0005,-0.1970,-0.0808
7624,-0.0156,-0.0225,-1.0028,-0.0158,0.1389,0.0261
7634,-0.0153,-0.0172,-1.0065,-0.0158,0.3373,-0.0655
7644,-0.0205,-0.0179,-1.0123,-0.0769,0.3984,-0.0808
7654,-0.0122,-0.0123,-1.0096,-0.1227,0.2152,-0.1876
7664,-0.0126,-0.0123,-1.0026,-0.0921,0.1694,-0.0960
7674,-0.0151,-0.0184,-1.0111,-0.0616,0.1083,-0.1113
7684,-0.0173,-0.0159,-1.0103,0.1521,0.0625,-0.1266
7694,-0.0102,-0.0176,-1.0086,0.2132,-0.1665,-0.0960
7704,-0.0104,-0.0174,-1.0094,0.2132,-0.3192,-0.0808
7714,-0.0114,-0.0198,-1.0082,0.2743,-0.3802,-0.0350
7724,-0.0122,-0.0142,-1.0069,0.2132,-0.2581,-0.1113
7734,-0.0166,-0.0223,-1.0086,-0.0005,-0.0749,-0.0502
7744,-0.0168,-0.0162,-1.0040,-0.1990,0.1999,0.0414
7754,-0.0156,-0.0206,-1.0011,-0.1837,0.6274,0.0872
7764,-0.0210,-0.0164,-1.0091,-0.1685,0.9175,0.0566
7774,-0.0122,-0.0152,-1.0072,0.0605,1.0549,0.0566
7784,-0.0146,-0.0179,-1.0166,0.2437,0.9633,-0.0197
7794,-0.0119,-0.0172,-1.0053,0.3201,0.5205,-0.0655
7804,-0.0073,-0.0208,-1.0115,0.3659,-0.0138,-0.1266
7814,-0.0109,-0.0240,-1.0099,0.2285,-0.5940,-0.1571
7824,-0.0129,-0.0159,-1.0040,0.1063,-0.8840,-0.0808
7834,-0.0158,-0.0172,-1.0128,-0.1227,-1.0825,-0.1418
7844,-0.0153,-0.0147,-1.0086,-0.1990,-1.0215,-0.1418
7854,-0.0124,-0.0196,-1.0069,-0.1837,-0.6245,-0.0502
7864,-0.0173,-0.0240,-1.0118,0.0147,-0.1970,-0.0350
7874,-0.0139,-0.0220,-1.0082,-0.0158,0.0015,-0.1418
7884,-0.0102,-0.0211,-1.0125,-0.1837,0.0778,-0.0044
7894,-0.0131,-0.0174,-1.0125,-0.3822,0.1083,-0.0350
7904,-0.0158,-0.0123,-1.0040,-0.5044,-0.0444,-0.1113
7914,-0.0122,-0.0162,-1.0033,-0.3517,-0.1512,-0.0044
7924,-0.0193,-0.0169,-1.0099,-0.1074,-0.1360,-0.0044
7934,-0.0171,-0.0154,-1.0019,0.1979,0.1083,0.0414
7944,-0.0188,-0.0118,-1.0082,0.4269,0.3831,0.0414
7954,-0.0161,-0.0137,-1.0038,0.4880,0.5663,-0.0044
7964,-0.0129,-0.0164,-1.0147,0.3048,0.5816,-0.1418
7974,-0.0141,-0.0157,-1.0091,0.1063,0.3221,-0.2182
7984,-0.0077,-0.0191,-1.0096,0.0911,0.0320,-0.1876
7994,-0.0109,-0.0213,-1.0099,0.1216,-0.1818,-0.1571
8004,-0.0156,-0.0225,-1.0057,0.0758,-0.3802,-0.1418
8014,-0.0109,-0.0225,-1.0099,0.0911,-0.3497,-0.0808
8024,-0.0126,-0.0186,-1.0062,-0.0311,-0.2886,-0.0197
8034,-0.0119,-0.0176,-1.0067,-0.1227,-0.2123,-0.0350
8044,-0.0141,-0.0159,-1.0101,-0.1227,-0.1818,-0.0502
8054,-0.0090,-0.0189,-1.0057,-0.1685,-0.3344,-0.1571
8064,-0.0131,-0.0154,-1.0120,-0.1532,-0.5634,-0.1724
8074,-0.0168,-0.0169,-1.0019,-0.1990,-0.6245,-0.0808
8084,-0.0234,-0.0132,-1.0021,-0.1685,-0.4108,-0.0502
8094,-0.0220,-0.0111,-1.0040,-0.1837,-0.0138,0.0719
8104,-0.0203,-0.0159,-1.0077,-0.0158,0.4289,0.0566
8114,-0.0178,-0.0176,-1.0028,0.1216,0.8411,0.1024
8124,-0.0136,-0.0125,-1.0135,0.1827,0.9327,0.0719
8134,-0.0144,-0.0135,-1.0123,0.2590,0.7495,-0.0044
8144,-0.0141,-0.0157,-1.0026,0.2437,0.4137,-0.1113
8154,-0.0134,-0.0220,-1.0096,0.1827,0.1694,-0.1113
8164,-0.0134,-0.0215,-1.0033,0.0453,-0.0291,-0.1266
8174,-0.0136,-0.0235,-1.0169,0.0758,-0.0138,-0.1571
8184,-0.0131,-0.0208,-1.0038,-0.0005,0.0320,-0.0808
8194,-0.0153,-0.0174,-1.0082,-0.0311,0.4137,-0.0197
8204,-0.0114,-0.0167,-1.0033,-0.0463,0.6274,0.0719
8214,-0.0141,-0.0152,-1.0089,-0.0311,0.6121,-0.0350
8224,-0.0141,-0.0157,-1.0130,0.0453,0.5358,-0.0350
8234,-0.0112,-0.0157,-1.0115,0.1827,0.5358,-0.0655
8244,-0.0082,-0.0235,-1.0084,0.1674,0.5663,-0.0350
8254,-0.0141,-0.0162,-1.0103,0.1674,0.4442,-0.0044
8264,-0.0134,-0.0159,-1.0065,0.1827,0.4442,-0.0960
8274,-0.0109,-0.0211,-1.0152,0.1369,0.3984,-0.0655
8284,-0.0141,-0.0181,-1.0077,0.1063,0.0015,-0.0350
8294,-0.0139,-0.0191,-1.0142,0.0300,-0.3344,-0.0044
8304,-0.0092,-0.0154,-1.0028,-0.1532,-0.7008,-0.0502
8314,-0.0183,-0.0218,-1.0069,-0.3364,-1.0062,-0.1113
8324,-0.0136,-0.0179,-1.0103,-0.6265,-0.8688,-0.1724
8334,-0.0163,-0.0196,-1.0040,-0.5654,-0.6245,-0.0960
8344,-0.0205,-0.0191,-1.0091,-0.2906,-0.2886,-0.0960
8354,-0.0178,-0.0169,-0.9990,-0.0158,-0.0444,-0.1418
8364,-0.0129,-0.0198,-1.0007,0.3048,0.1999,-0.0960
8374,-0.0153,-0.0220,-1.0072,0.2437,0.2305,-0.1724
8384,-0.0144,-0.0176,-1.0137,0.1063,0.0015,-0.0350
8394,-0.0139,-0.0164,-1.0130,0.0300,-0.1054,-0.0655
8404,-0.0173,-0.0130,-1.0036,0.0453,-0.1054,-0.0197
8414,-0.0151,-0.0132,-1.0048,-0.0005,0.0625,-0.0655
8424,-0.0212,-0.0159,-1.0101,0.1521,0.2915,0.0414
8434,-0.0153,-0.0152,-1.0045,0.2895,0.5969,0.1177
8444,-0.0166,-0.0152,-1.0065,0.2895,0.7037,0.1177
8454,-0.0166,-0.0172,-0.9987,0.3048,0.8411,0.0719
8464,-0.0144,-0.0193,-1.0062,0.2437,0.7953,-0.0655
8474,-0.0124,-0.0159,-1.0074,0.1979,0.7648,-0.0044
8484,-0.0144,-0.0145,-1.0101,0.3353,0.7190,-0.0044
8494,-0.0176,-0.0201,-1.0048,0.3506,0.5053,-0.0808
8504,-0.0129,-0.0154,-1.0094,0.4117,0.4137,-0.0197
8514,-0.0146,-0.0235,-1.0072,0.3201,0.2915,-0.0197
8524,-0.0144,-0.0233,-1.0101,0.3811,0.3831,-0.0655
8534,-0.0119,-0.0201,-1.0103,0.3811,0.4137,-0.0655
8544,-0.0114,-0.0220,-1.0069,0.3201,0.4595,-0.0350
8554,-0.0122,-0.0237,-1.0130,0.2285,0.3831,0.0261
8564,-0.0153,-0.0162,-1.0101,0.0758,0.1999,-0.0808
8574,-0.0129,-0.0206,-1.0120,-0.1532,0.0320,-0.0350
8584,-0.0131,-0.0176,-1.0050,0.0147,-0.2734,-0.0502
8594,-0.0095,-0.0106,-1.0111,0.0300,-0.5024,-0.0350
8604,-0.0139,-0.0193,-1.0111,0.3353,-0.8077,-0.0960
8614,-0.0176,-0.0157,-1.0024,0.2743,-1.0673,-0.1724
8624,-0.0212,-0.0245,-1.0055,0.2743,-1.0367,-0.2182
8634,-0.0220,-0.0193,-1.0014,0.0605,-0.7314,-0.2640
8644,-0.0151,-0.0208,-1.0024,0.0300,-0.1970,-0.2182
8654,-0.0225,-0.0215,-1.0036,-0.1074,0.1389,-0.1418
8664,-0.0185,-0.0201,-1.0004,0.1063,0.5205,-0.0655
8674,-0.0217,-0.0198,-1.0053,0.2285,0.8259,0.0566
8684,-0.0163,-0.0206,-1.0113,0.3201,1.0702,0.0719
8694,-0.0097,-0.0230,-1.0094,0.3201,1.1160,0.1177
8704,-0.0122,-0.0174,-1.0082,0.2743,1.0091,0.0566
8714,-0.0126,-0.0240,-1.0106,0.2285,0.9175,0.0261
8724,-0.0156,-0.0147,-1.0079,0.1979,0.9785,-0.0044
8734,-0.0097,-0.0162,-1.0060,0.1063,0.8259,-0.0808
8744,-0.0102,-0.0159,-1.0077,-0.0158,0.6121,-0.0655
8754,-0.0158,-0.0259,-1.0113,-0.0005,0.3373,-0.0960
8764,-0.0112,-0.0237,-1.0096,-0.1990,0.1999,-0.0808
8774,-0.0102,-0.0284,-1.0125,-0.2906,0.4289,-0.0960
8784,-0.0122,-0.0208,-1.0065,-0.5349,0.5053,-0.0808
8794,-0.0107,-0.0240,-1.0062,-0.7792,0.7037,-0.0044
8804,-0.0122,-0.0191,-1.0067,-0.9318,0.8106,0.0872
8814,-0.0063,-0.0184,-1.0069,-0.8250,0.8259,0.1788
8824,-0.0126,-0.0137,-1.0060,-0.5502,0.3526,0.1024
8834,-0.0126,-0.0145,-1.0086,-0.1532,-0.2123,0.0414
8844,-0.0082,-0.0111,-1.0082,0.1063,-0.5482,0.0108
8854,-0.0129,-0.0147,-1.0048,0.0605,-0.7772,-0.1266
8864,-0.0075,-0.0145,-1.0091,-0.0769,-1.0062,-0.1876
8874,-0.0114,-0.0154,-1.0096,-0.2295,-1.1589,-0.1418
8884,-0.0107,-0.0157,-1.0082,-0.3517,-1.0367,-0.1571
8894,-0.0151,-0.0154,-1.0096,-0.3517,-1.1283,-0.1724
8904,-0.0168,-0.0154,-1.0067,-0.2906,-1.1741,-0.0808
8914,-0.0129,-0.0154,-1.0036,-0.1532,-1.3421,-0.0808
8924,-0.0119,-0.0152,-1.0026,-0.0769,-1.1894,-0.0960
8934,-0.0180,-0.0196,-1.0040,-0.0921,-1.0062,-0.0960
8944,-0.0168,-0.0181,-1.0099,-0.1074,-0.8382,-0.1571
8954,-0.0193,-0.0181,-1.0106,-0.2143,-0.5634,-0.1571
8964,-0.0168,-0.0193,-1.0111,-0.1990,-0.5024,-0.0808
8974,-0.0176,-0.0220,-1.0060,-0.1379,-0.4108,-0.0655
8984,-0.0149,-0.0191,-1.0132,0.1216,-0.4871,-0.0350
8994,-0.0163,-0.0179,-1.0149,0.1979,-0.3192,-0.0808
9004,-0.0234,-0.0186,-1.0077,0.1369,-0.1512,-0.0808
9014,-0.0146,-0.0193,-1.0074,0.0453,0.0320,-0.0655
9024,-0.0215,-0.0164,-1.0065,-0.1532,0.2763,-0.1418
9034,-0.0141,-0.0162,-1.0038,-0.2448,0.4747,-0.0655
9044,-0.0131,-0.0157,-1.0106,-0.1227,0.4442,0.0261
9054,-0.0141,-0.0215,-1.0072,-0.0463,0.2915,-0.0044
9064,-0.0151,-0.0203,-1.0094,0.0147,0.1541,0.0108
9074,-0.0156,-0.0174,-1.0103,-0.0616,0.2763,0.0261
9084,-0.0188,-0.0154,-1.0055,-0.1532,0.4289,-0.0044
9094,-0.0146,-0.0157,-1.0094,-0.2906,0.4137,-0.0044
9104,-0.0141,-0.0152,-1.0099,-0.3822,0.2610,-0.0808
9114,-0.0146,-0.0103,-1.0036,-0.4433,0.0167,-0.1113
9124,-0.0173,-0.0154,-1.0060,-0.3517,0.0167,-0.0655
9134,-0.0158,-0.0150,-1.0082,-0.2143,-0.0291,-0.0502
9144,-0.0185,-0.0145,-1.0036,0.1369,0.1236,-0.0350
9154,-0.0158,-0.0154,-1.0065,0.2590,0.2610,-0.0808
9164,-0.0122,-0.0201,-1.0128,0.4117,0.3373,-0.0655
9174,-0.0131,-0.0167,-1.0132,0.3048,0.2457,-0.2487
9184,-0.0126,-0.0152,-1.0074,0.1063,0.0931,-0.1876
9194,-0.0161,-0.0176,-1.0086,0.0605,0.0167,-0.2334
9204,-0.0171,-0.0157,-1.0048,0.0453,0.0931,-0.1113
9214,-0.0153,-0.0211,-1.0089,-0.0005,0.2457,-0.0044
9224,-0.0200,-0.0150,-1.0077,0.0147,0.5205,-0.0350
9234,-0.0183,-0.0206,-1.0091,0.0147,0.8259,-0.0044
9244,-0.0183,-0.0186,-1.0111,0.0147,0.9938,-0.0197
9254,-0.0149,-0.0191,-1.0043,0.0911,1.1312,-0.0655
9264,-0.0163,-0.0208,-1.0130,0.2590,1.1618,-0.0502
9274,-0.0144,-0.0191,-1.0069,0.2895,0.9938,0.0261
9284,-0.0134,-0.0237,-1.0067,0.2590,0.7648,-0.0350
9294,-0.0166,-0.0152,-1.0028,0.0605,0.5053,-0.0350
9304,-0.0114,-0.0162,-1.0142,-0.0463,0.4900,-0.0350
9314,-0.0151,-0.0128,-1.0091,-0.1074,0.3679,-0.0197
9324,-0.0080,-0.0162,-1.0053,-0.1227,0.1999,-0.0655
9334,-0.0163,-0.0179,-1.0079,-0.1532,0.0015,-0.1113
9344,-0.0102,-0.0157,-1.0033,-0.0158,0.0778,0.0261
9354,-0.0158,-0.0157,-1.0113,-0.0311,0.1847,-0.0044
9364,-0.0149,-0.0206,-1.0086,-0.0616,0.3221,-0.0044
9374,-0.0129,-0.0142,-1.0101,-0.1837,0.4442,-0.0197
9384,-0.0073,-0.0179,-1.0108,-0.0921,0.3221,-0.0044
9394,-0.0136,-0.0162,-1.0115,-0.0158,-0.0444,-0.0044
9404,-0.0183,-0.0118,-1.0045,-0.0158,-0.4413,-0.0808
9414,-0.0136,-0.0203,-1.0077,0.1521,-0.6398,-0.1571
9424,-0.0161,-0.0147,-1.0048,0.3201,-0.6092,-0.2029
9434,-0.0171,-0.0220,-1.0077,0.3048,-0.3955,-0.1266
9444,-0.0161,-0.0208,-1.0038,0.2743,-0.1818,-0.1571
9454,-0.0114,-0.0220,-1.0069,0.0911,-0.0444,-0.1571
9464,-0.0119,-0.0167,-1.0130,-0.1837,-0.0291,-0.0808
9474,-0.0131,-0.0179,-1.0084,-0.3822,-0.1207,-0.0655
9484,-0.0178,-0.0191,-1.0074,-0.4585,-0.2276,-0.0197
9494,-0.0124,-0.0223,-1.0113,-0.2601,-0.1360,-0.0350
9504,-0.0193,-0.0164,-1.0077,-0.1532,-0.0291,-0.0350
9514,-0.0122,-0.0164,-1.0137,-0.1685,0.0473,0.0566
9524,-0.0161,-0.0164,-1.0089,-0.2143,0.0625,-0.0044
9534,-0.0131,-0.0142,-1.0084,-0.1837,-0.1665,-0.1113
9544,-0.0131,-0.0152,-1.0103,-0.1837,-0.3344,-0.1266
9554,-0.0180,-0.0159,-1.0021,-0.0921,-0.3650,-0.1266
9564,-0.0185,-0.0154,-1.0016,-0.0158,-0.2276,-0.2029
9574,-0.0048,-0.0274,-1.0161,0.0300,0.0167,-0.1266
9584,-0.0163,-0.0220,-1.0045,-0.0616,0.1999,-0.0197
9594,-0.0144,-0.0137,-1.0103,-0.0921,0.2763,-0.0808
9604,-0.0095,-0.0115,-1.0082,-0.0158,0.1083,-0.0808
9614,-0.0168,-0.0167,-1.0103,-0.0158,-0.1360,-0.1266
9624,-0.0139,-0.0181,-1.0106,0.0147,-0.1665,-0.1724
9634,-0.0193,-0.0213,-1.0031,-0.0769,-0.1818,-0.1571
9644,-0.0139,-0.0174,-1.0082,-0.1990,0.0778,-0.0960
9654,-0.0141,-0.0189,-1.0053,-0.2143,0.2457,-0.0808
9664,-0.0136,-0.0172,-1.0069,-0.0769,0.2457,0.0261
9674,-0.0146,-0.0186,-1.0086,0.0147,0.0778,-0.0197
9684,-0.0109,-0.0152,-1.0094,0.0300,-0.1207,-0.0960
9694,-0.0166,-0.0193,-1.0113,0.0300,-0.4108,-0.1113
9704,-0.0161,-0.0159,-1.0033,-0.0311,-0.4718,-0.1571
9714,-0.0193,-0.0162,-1.0021,-0.0921,-0.3802,0.0108
9724,-0.0188,-0.0132,-1.0062,-0.0616,-0.3192,-0.1113
9734,-0.0200,-0.0081,-1.0074,0.0147,-0.2123,-0.0808
9744,-0.0180,-0.0145,-1.0091,0.2590,-0.1207,-0.0350
9754,-0.0149,-0.0174,-1.0072,0.3659,-0.0444,-0.0044
9764,-0.0234,-0.0130,-0.9997,0.5644,0.1389,0.1024
9774,-0.0215,-0.0203,-1.0062,0.4727,0.3068,0.0719
9784,-0.0178,-0.0181,-1.0043,0.5033,0.5358,-0.0502
9794,-0.0163,-0.0164,-1.0103,0.2895,0.7343,-0.0502
9804,-0.0136,-0.0223,-1.0072,0.1216,0.7953,-0.0197
9814,-0.0073,-0.0169,-1.0069,0.1216,0.8411,-0.0197
9824,-0.0131,-0.0237,-1.0077,-0.1227,0.2610,-0.1266
9834,-0.0141,-0.0213,-1.0057,0.0605,0.1083,-0.0350
9844,-0.0129,-0.0259,-1.0036,0.0758,0.1083,-0.0502
9854,-0.0126,-0.0228,-1.0115,0.0605,0.1541,0.0566
9864,-0.0156,-0.0157,-1.0077,-0.0158,0.2457,-0.1113
9874,-0.0060,-0.0184,-1.0111,-0.2601,0.3068,-0.0655
9884,-0.0126,-0.0167,-1.0074,-0.3211,0.2152,-0.1418
9894,-0.0070,-0.0211,-1.0164,-0.3669,0.1236,-0.1571
9904,-0.0166,-0.0128,-1.0082,-0.3669,-0.0138,-0.1724
9914,-0.0139,-0.0186,-1.0149,-0.3211,-0.1818,-0.1113
9924,-0.0217,-0.0176,-1.0062,-0.2906,-0.1360,-0.0808
9934,-0.0190,-0.0132,-1.0065,-0.4585,0.1236,-0.0350
9944,-0.0156,-0.0140,-1.0060,-0.2906,0.0778,-0.0808
9954,-0.0144,-0.0128,-1.0074,-0.0921,-0.0138,-0.0044
9964,-0.0092,-0.0089,-1.0065,0.1827,-0.1512,-0.0502
9974,-0.0153,-0.0157,-1.0096,0.1979,-0.3497,-0.1876
9984,-0.0178,-0.0172,-1.0057,0.1674,-0.3650,-0.1113
9994,-0.0171,-0.0220,-1.0099,0.2132,-0.1360,-0.1876
10004,-0.0134,-0.0213,-1.0149,0.2590,0.1389,-0.1418
10014,-0.0126,-0.0189,-1.0050,0.2285,0.3831,0.0566
10024,-0.0158,-0.0191,-1.0057,0.1369,0.7190,0.0414
10034,-0.0136,-0.0245,-1.0120,-0.0005,0.8259,-0.0350
10044,-0.0112,-0.0191,-1.0130,-0.0005,0.6885,0.0566
10054,-0.0097,-0.0176,-1.0086,-0.1379,0.4289,0.0414
10064,-0.0161,-0.0189,-1.0089,-0.1532,0.1847,-0.0502
10074,-0.0193,-0.0181,-1.0043,-0.1532,-0.1207,-0.0960
10084,-0.0198,-0.0159,-1.0060,-0.1379,0.0625,-0.0502
10094,-0.0144,-0.0093,-1.0144,-0.1990,0.2152,0.0414
10104,-0.0166,-0.0186,-1.0142,-0.0005,0.1541,0.0261
10114,-0.0217,-0.0152,-1.0111,0.0911,0.0167,-0.0655
10124,-0.0114,-0.0113,-1.0048,0.1521,0.1847,-0.0960
10134,-0.0193,-0.0174,-1.0057,0.1369,-0.1054,-0.0808
10144,-0.0156,-0.0111,-1.0011,0.0147,-0.3344,-0.1113
10154,-0.0171,-0.0172,-1.0106,-0.0311,-0.4413,-0.1266
10164,-0.0131,-0.0118,-1.0069,0.0453,-0.5024,-0.2029
10174,-0.0166,-0.0169,-1.0077,0.1369,-0.4108,-0.1418
10184,-0.0149,-0.0172,-1.0089,0.0300,-0.2886,-0.0502
10194,-0.0149,-0.0223,-1.0096,-0.0311,-0.3192,-0.0350
10204,-0.0134,-0.0203,-1.0123,-0.1074,-0.2734,-0.0044
10214,-0.0161,-0.0174,-1.0069,-0.1990,-0.2734,-0.0197
10224,-0.0185,-0.0220,-1.0019,-0.1227,-0.1818,-0.1418
10234,-0.0212,-0.0184,-0.9992,-0.0463,0.0625,-0.1571
10244,-0.0176,-0.0206,-0.9987,0.0758,0.5053,-0.1876
10254,-0.0203,-0.0198,-1.0057,0.0605,0.9327,-0.0044
10264,-0.0220,-0.0154,-1.0019,-0.1227,1.0091,-0.0044
10274,-0.0085,-0.0184,-1.0123,-0.1990,1.1770,-0.0808
10284,-0.0090,-0.0164,-1.0108,-0.1074,1.0549,-0.0808
10294,-0.0090,-0.0142,-1.0137,-0.0311,0.7801,-0.0960
10304,-0.0168,-0.0125,-1.0031,0.1827,0.4900,-0.0502
10314,-0.0146,-0.0203,-1.0091,0.2285,0.4442,-0.1113
10324,-0.0131,-0.0174,-1.0002,0.2437,0.5969,-0.0808
10334,-0.0126,-0.0189,-1.0099,0.1369,0.7953,-0.0502
10344,-0.0092,-0.0220,-1.0106,0.2132,0.8411,-0.1113
10354,-0.0050,-0.0342,-1.0241,0.1063,0.7037,-0.0960
10364,-0.0107,-0.0237,-1.0026,0.2437,0.3984,-0.0197
10374,-0.0055,-0.0203,-1.0111,0.0453,0.1694,0.0414
10384,-0.0100,-0.0257,-1.0106,-0.0463,-0.1054,-0.1266
10394,-0.0151,-0.0215,-1.0074,-0.2906,-0.4413,-0.1724
10404,-0.0112,-0.0189,-1.0103,-0.4891,-0.6703,-0.1571
10414,-0.0195,-0.0176,-1.0055,-0.6112,-0.8230,-0.1266
10424,-0.0205,-0.0189,-1.0036,-0.5807,-0.9298,-0.0655
10434,-0.0151,-0.0096,-1.0031,-0.5807,-0.7924,-0.0808
10444,-0.0171,-0.0174,-1.0111,-0.4891,-0.8382,-0.1418
10454,-0.0185,-0.0150,-1.0183,-0.5196,-0.7772,-0.0960
10464,-0.0158,-0.0001,-0.9999,-0.3669,-0.7161,0.0108
10474,-0.0171,-0.0218,-1.0067,-0.2906,-0.5940,0.0108
10484,-0.0203,-0.0130,-1.0031,-0.2906,-0.7619,-0.1418
10494,-0.0210,-0.0042,-1.0045,-0.3059,-0.9146,-0.2029
10504,-0.0144,-0.0196,-1.0055,-0.3059,-0.9146,-0.1876
10514,-0.0203,-0.0176,-1.0057,-0.1532,-0.9146,-0.2487
10524,-0.0153,-0.0154,-1.0094,-0.0005,-0.7772,-0.1571
10534,-0.0180,-0.0184,-1.0082,0.0453,-0.7314,-0.0655
10544,-0.0178,-0.0167,-1.0065,0.0605,-0.6550,-0.0808
10554,-0.0180,-0.0191,-1.0089,0.1979,-0.4566,-0.0808
10564,-0.0203,-0.0184,-1.0007,0.2743,-0.0596,0.0108
10574,-0.0180,-0.0201,-1.0048,0.2437,0.3831,0.0566
10584,-0.0163,-0.0191,-1.0014,0.1979,0.6885,0.0719
10594,-0.0173,-0.0157,-1.0086,-0.0616,0.8411,0.0414
10604,-0.0144,-0.0147,-1.0086,-0.1227,0.9022,0.0872
10614,-0.0161,-0.0091,-1.0113,-0.0158,0.8564,0.0414
10624,-0.0168,-0.0093,-1.0147,0.2132,0.5663,0.0566
10634,-0.0149,-0.0140,-1.0086,0.3659,0.1847,0.0108
10644,-0.0210,-0.0123,-1.0108,0.2895,0.0473,-0.0960
10654,-0.0173,-0.0125,-1.0086,0.1369,0.0320,-0.1113
10664,-0.0158,-0.0159,-1.0084,0.1979,0.0167,-0.0655
10674,-0.0146,-0.0128,-1.0147,0.1216,0.0931,-0.0502
10684,-0.0163,-0.0164,-1.0043,0.1521,0.1083,-0.1266
10694,-0.0149,-0.0189,-1.0140,0.2437,0.1236,-0.0960
10704,-0.0104,-0.0164,-1.0159,0.4575,0.1541,-0.0350
10714,-0.0153,-0.0242,-1.0026,0.3201,0.1541,0.0108
10724,-0.0188,-0.0247,-1.0130,0.2285,0.1541,-0.0044
10734,-0.0163,-0.0176,-1.0048,0.0911,0.2915,0.0261
10744,-0.0095,-0.0108,-1.0103,0.0605,0.3526,0.0872
10754,-0.0141,-0.0237,-1.0140,-0.2143,-0.0291,-0.0502
10764,-0.0114,-0.0162,-1.0086,-0.1074,-0.2886,-0.1418
10774,-0.0149,-0.0184,-1.0038,0.0147,-0.5482,-0.1876
10784,-0.0151,-0.0186,-1.0060,0.0605,-0.5940,-0.1113
10794,-0.0198,-0.0181,-1.0057,0.0300,-0.4566,-0.0502
10804,-0.0195,-0.0174,-1.0099,0.0300,-0.3344,-0.0808
10814,-0.0217,-0.0152,-1.0111,-0.0005,-0.2123,-0.1724
10824,-0.0180,-0.0067,-1.0002,0.0605,0.0320,-0.2029
10834,-0.0163,-0.0179,-1.0084,-0.0005,0.0473,-0.1876
10844,-0.0156,-0.0211,-1.0091,0.0147,-0.1665,-0.1724
10854,-0.0158,-0.0196,-1.0173,0.0147,-0.3192,-0.1113
10864,-0.0139,-0.0179,-1.0125,0.0758,-0.3650,-0.1113
10874,-0.0232,-0.0152,-1.0057,0.0300,-0.4871,-0.0502
10884,-0.0193,-0.0154,-1.0072,0.1063,-0.2886,-0.0350
10894,-0.0166,-0.0147,-1.0135,0.1521,-0.0444,-0.0960
10904,-0.0176,-0.0176,-1.0086,0.0453,-0.0902,-0.0808
10914,-0.0139,-0.0220,-1.0091,0.0911,-0.1207,-0.0808
10924,-0.0205,-0.0164,-1.0065,0.0605,-0.2123,-0.0808
10934,-0.0195,-0.0215,-1.0040,-0.1227,-0.1818,-0.1571
10944,-0.0198,-0.0140,-1.0040,-0.1837,0.0473,-0.0960
10954,-0.0229,-0.0198,-1.0161,-0.2295,0.2152,-0.0655
10964,-0.0163,-0.0147,-1.0157,-0.1685,0.4747,-0.1266
10974,-0.0114,-0.0111,-1.0135,-0.1074,0.5511,-0.1266
10984,-0.0188,-0.0198,-1.0123,-0.1837,0.3526,-0.1266
10994,-0.0117,-0.0140,-1.0140,-0.2601,0.1236,-0.0960
11004,-0.0144,-0.0159,-1.0113,-0.2448,-0.2886,-0.1571
11014,-0.0141,-0.0181,-1.0050,-0.2906,-0.5940,-0.1418
11024,-0.0141,-0.0196,-0.9987,-0.4433,-0.5329,-0.1724
11034,-0.0141,-0.0230,-1.0079,-0.3364,-0.3955,-0.1571
11044,-0.0141,-0.0201,-1.0118,-0.3517,-0.2123,-0.1571
11054,-0.0129,-0.0220,-1.0060,-0.4127,-0.2276,-0.2792
11064,-0.0180,-0.0206,-1.0065,-0.4891,-0.2276,-0.0655
11074,-0.0158,-0.0172,-1.0067,-0.4891,-0.2428,-0.1418
11084,-0.0136,-0.0142,-1.0050,-0.4127,-0.3344,-0.0960
11094,-0.0188,-0.0076,-0.9999,-0.5044,-0.3802,-0.0197
11104,-0.0193,-0.0150,-1.0079,-0.5349,-0.4871,-0.0044
11114,-0.0193,-0.0132,-1.0082,-0.3211,-0.4566,-0.0197
11124,-0.0173,-0.0098,-1.0115,-0.0921,-0.2886,-0.0960
11134,-0.0217,-0.0115,-1.0086,-0.0005,-0.3192,-0.0960
11144,-0.0173,-0.0179,-1.0094,0.1369,-0.1970,-0.1113
11154,-0.0161,-0.0206,-1.0113,0.0605,-0.0444,-0.1266
11164,-0.0166,-0.0189,-1.0103,-0.0921,-0.0291,-0.1266
11174,-0.0171,-0.0230,-1.0140,-0.1074,-0.0902,-0.1266
11184,-0.0171,-0.0169,-1.0115,-0.0921,-0.0596,-0.0655
11194,-0.0153,-0.0157,-1.0089,-0.0616,-0.1818,-0.0197
11204,-0.0129,-0.0225,-1.0072,-0.1074,-0.1970,-0.0655
11214,-0.0158,-0.0186,-1.0045,-0.1532,-0.3955,-0.1418
11224,-0.0183,-0.0176,-1.0036,-0.2448,-0.4108,-0.0808
11234,0.0030,-0.0125,-0.9980,-0.3059,-0.5024,-0.1418
11244,-0.0227,-0.0106,-0.9936,-0.3975,-0.7619,-0.4014
11254,-0.0212,-0.0147,-0.9946,-0.2143,-0.5634,-0.2640
11264,-0.0237,-0.0118,-0.9927,-0.0005,-0.2428,-0.2029
11274,-0.0190,-0.0071,-1.0002,0.3201,0.0473,-0.1113
11284,-0.0271,-0.0125,-1.0118,0.3506,0.4137,-0.0808
11294,-0.0131,-0.0125,-1.0154,0.5338,0.8564,-0.0197
11304,-0.0183,-0.0111,-1.0040,0.5185,0.4289,-0.1418
11314,-0.0244,-0.0164,-1.0014,0.5185,0.2457,-0.1418
11324,-0.0178,-0.0164,-1.0053,0.3964,0.3373,-0.0655
11334,-0.0225,-0.0179,-1.0072,0.2590,0.5205,-0.0350
11344,-0.0239,-0.0220,-1.0128,0.0758,0.5969,-0.1266
11354,-0.0256,-0.0267,-1.0026,-0.0311,0.7343,-0.1266
11364,-0.0070,-0.0172,-1.0219,0.0453,1.0702,-0.0808
11374,-0.0122,-0.0257,-1.0137,-0.1379,0.8717,-0.0655
11384,-0.0185,-0.0169,-1.0028,-0.1990,0.6121,-0.0502
11394,-0.0173,-0.0172,-1.0113,-0.0311,0.7343,0.0566
11404,-0.0141,-0.0147,-1.0166,0.1979,0.7343,0.0108
11414,-0.0227,-0.0132,-1.0118,0.0605,0.6579,-0.0808
11424,-0.0109,-0.0142,-1.0077,0.0758,0.7037,0.0108
11434,-0.0158,-0.0164,-1.0140,0.0758,0.6274,0.0108
11444,-0.0203,-0.0147,-1.0055,0.0758,0.5511,-0.0960
11454,-0.0141,-0.0147,-1.0106,0.1216,0.4900,-0.0960
11464,-0.0139,-0.0130,-1.0149,0.0147,0.3831,-0.0655
11474,-0.0242,-0.0259,-0.9929,-0.1837,0.1999,-0.1266
11484,-0.0131,-0.0213,-1.0094,-0.4433,-0.1818,-0.1876
11494,-0.0085,-0.0189,-1.0169,-0.5807,-0.7466,-0.2182
11504,-0.0011,-0.0267,-1.0147,-0.7028,-1.5405,-0.3403
11514,-0.0180,-0.0184,-0.9985,-0.7486,-2.2123,-0.6915
11524,-0.0318,-0.0142,-0.9995,-0.7334,-2.1512,-0.6456
11534,-0.0298,-0.0125,-1.0009,-0.4585,-1.5558,-0.5540
11544,-0.0217,-0.0106,-1.0028,-0.0463,-0.8077,-0.3098
11554,-0.0188,-0.0108,-1.0002,0.1521,-0.3344,-0.2182
11564,-0.0168,-0.0084,-1.0048,0.4269,-0.2581,-0.1724
11574,-0.0252,-0.0118,-1.0045,0.6102,-0.0749,-0.1418
11584,-0.0126,-0.0115,-1.0084,0.9460,0.0015,-0.0502
11594,-0.0200,-0.0111,-1.0089,0.9002,0.0625,-0.0350
11604,-0.0205,-0.0174,-1.0077,0.8544,0.2305,-0.0655
11614,-0.0180,-0.0218,-1.0125,0.5491,0.2152,-0.0960
11624,-0.0205,-0.0157,-1.0060,0.3201,0.1083,-0.0044
11634,-0.0269,-0.0169,-0.9992,0.0758,0.3373,0.0414
11644,-0.0745,-0.0196,-0.9566,-0.3364,1.5740,-0.0197
11654,0.0035,-0.0272,-1.0215,-0.0463,2.0778,0.3315
11664,-0.0146,-0.0108,-1.0188,-0.1990,1.1312,0.1940
11674,-0.0158,-0.0179,-1.0019,-0.0463,0.6732,0.0108
11684,-0.0193,-0.0201,-1.0050,0.0605,0.5511,-0.0808
11694,-0.0200,-0.0128,-1.0069,0.0758,0.5511,-0.0044
11704,-0.0122,-0.0191,-1.0140,-0.0463,0.4137,-0.0502
11714,-0.0097,-0.0215,-1.0190,-0.2906,-0.1818,-0.1113
11724,-0.0151,-0.0167,-1.0089,-0.5196,-0.5787,-0.1418
11734,-0.0198,-0.0106,-1.0065,-0.5196,-0.3497,0.0108
11744,-0.0205,-0.0115,-1.0057,-0.4891,0.1236,0.0872
11754,-0.0119,-0.0081,-1.0094,-0.2448,0.5205,0.1788
11764,-0.0146,-0.0115,-1.0132,-0.2295,0.5205,0.1024
11774,-0.0156,-0.0074,-1.0036,-0.2448,0.2915,0.0566
11784,-0.0207,-0.0096,-1.0033,-0.1685,0.2305,0.0719
11794,-0.0413,-0.0128,-1.0077,-0.1685,-0.0444,0.0261
11804,-0.0151,-0.0103,-1.0108,-0.0158,-0.0138,-0.0044
11814,-0.0298,-0.0118,-1.0033,0.1521,-0.1665,-0.0197
11824,-0.0122,-0.0245,-1.0096,0.2132,-0.0596,-0.0197
11834,-0.0195,-0.0186,-1.0050,0.2132,0.1541,-0.0044
11844,-0.0222,-0.0113,-1.0033,0.1674,0.4442,0.0108
11854,-0.0163,-0.0152,-1.0118,0.0911,0.7190,0.1177
11864,-0.0180,-0.0169,-1.0055,-0.0616,0.5969,0.1177
11874,-0.0193,-0.0201,-1.0050,-0.0616,0.5358,0.0108
11884,-0.0141,-0.0164,-1.0036,-0.1379,0.4900,0.0414
11894,-0.0153,-0.0169,-1.0103,-0.2753,0.1847,0.0414
11904,-0.0131,-0.0167,-1.0065,-0.1532,0.1083,0.0566
11914,-0.0126,-0.0164,-1.0060,-0.2448,0.2152,0.1177
11924,-0.0158,-0.0132,-1.0040,-0.3059,0.2305,0.0261
11934,-0.0114,-0.0196,-1.0171,-0.3975,0.1083,0.0719
11944,-0.0207,-0.0123,-1.0060,-0.5502,-0.1054,-0.0197
11954,-0.0178,-0.0091,-1.0072,-0.4738,-0.0596,-0.0502
11964,-0.0168,-0.0125,-1.0074,-0.3975,-0.1207,-0.0502
11974,-0.0193,-0.0120,-1.0057,-0.2295,-0.1207,-0.0808
11984,-0.0244,-0.0111,-1.0057,-0.0769,0.0625,-0.0502
11994,-0.0178,-0.0093,-1.0031,0.2285,0.3679,0.0414
12004,-0.0178,-0.0172,-1.0009,0.3048,0.4595,0.0261
12014,-0.0234,-0.0035,-0.9978,0.3964,0.3984,0.0719
12024,-0.0176,-0.0152,-1.0108,0.2743,0.5511,0.0872
12034,-0.0195,-0.0223,-1.0060,0.1521,0.5663,0.0872
12044,-0.0229,-0.0159,-1.0072,-0.0769,0.5969,0.0108
12054,-0.0102,-0.0128,-1.0198,-0.1379,0.6885,0.0872
12064,-0.0190,-0.0208,-1.0113,-0.4280,0.3221,0.1635
12074,-0.0195,-0.0174,-1.0040,-0.5502,0.3373,0.1330
12084,-0.0136,-0.0145,-1.0043,-0.5960,0.4747,0.1940
12094,-0.0149,-0.0145,-1.0040,-0.5807,0.0015,0.1482
12104,-0.0953,-0.0235,-0.9724,-0.4433,-0.8993,0.4994
12114,-0.1027,-0.0228,-0.9716,1.2361,-3.0520,2.8505
12124,0.0864,0.0077,-1.0500,1.6941,-0.9756,4.6063
12134,0.0359,-0.0184,-1.0268,0.5185,0.5053,2.8047
12144,-0.0028,-0.0125,-1.0246,-0.4280,-0.7924,1.1864
12154,-0.0247,-0.0025,-0.9995,-0.3975,-1.7848,0.3467
12164,-0.0445,-0.0089,-0.9811,-0.0769,-1.3573,0.3315
12174,-0.0212,-0.0076,-1.0036,0.3201,-0.1207,0.5299
12184,-0.0107,-0.0103,-1.0147,0.3964,0.4289,0.4231
12194,-0.0168,-0.0172,-1.0137,0.4422,0.2457,0.2398
12204,-0.0261,-0.0096,-1.0016,0.3659,0.2152,0.1177
12214,-0.0136,-0.0106,-1.0101,0.4117,0.3679,0.0872
12224,-0.0114,-0.0169,-1.0125,0.3506,0.3068,0.0566
12234,-0.0092,-0.0193,-1.0181,0.3964,-0.0749,-0.0044
12244,-0.0122,-0.0223,-1.0099,0.3811,-0.7314,-0.0502
12254,-0.0156,-0.0235,-1.0074,0.1979,-1.0978,-0.0350
12264,-0.0247,-0.0172,-1.0072,0.0147,-0.9909,-0.0350
12274,-0.0217,-0.0132,-1.0135,-0.1379,-0.4718,0.0719
12284,-0.0166,-0.0174,-1.0065,-0.1227,-0.2123,0.0719
12294,-0.0171,-0.0103,-0.9927,-0.3669,-0.0902,0.0261
12304,-0.0205,-0.0140,-1.0031,-0.3364,0.1389,0.0414
12314,-0.0185,-0.0154,-1.0060,-0.1685,0.3221,0.1024
12324,-0.0195,-0.0203,-1.0009,-0.1379,0.4900,0.0719
12334,-0.0210,-0.0108,-1.0060,0.1063,0.4595,0.1330
12344,-0.0183,-0.0132,-1.0069,0.1521,0.2457,0.1330
12354,-0.0146,-0.0135,-1.0072,0.1979,0.1083,0.0414
12364,-0.0178,-0.0130,-1.0077,0.0605,-0.2428,-0.0808
12374,-0.0193,-0.0125,-1.0135,-0.0158,-0.4566,-0.1571
12384,-0.0217,-0.0120,-1.0128,-0.0921,-0.5329,-0.1418
12394,-0.0237,-0.0152,-1.0055,-0.0769,-0.4260,-0.2029
12404,-0.0229,-0.0125,-1.0014,-0.0005,-0.1207,-0.1876
12414,-0.0183,-0.0152,-1.0019,0.1216,0.3526,-0.0502
12424,-0.0136,-0.0147,-1.0055,0.3659,0.5053,0.0719
12434,-0.0131,-0.0147,-1.0096,0.4269,0.3526,0.0414
12444,-0.0134,-0.0228,-1.0072,0.3353,0.1999,0.0414
12454,-0.0215,-0.0150,-1.0079,0.4422,0.1999,-0.0960
12464,-0.0107,-0.0174,-1.0152,0.2132,0.2915,-0.0044
12474,-0.0112,-0.0179,-1.0144,0.0453,0.1694,-0.0808
12484,-0.0156,-0.0223,-0.9999,-0.0616,-0.2734,-0.1266
12494,-0.0207,-0.0169,-1.0053,-0.1685,-0.6092,-0.1571
12504,-0.0234,-0.0103,-1.0089,0.0453,-0.5940,-0.1876
12514,-0.0247,-0.0125,-1.0062,0.2437,-0.2123,-0.0655
12524,-0.0178,-0.0157,-1.0040,0.3811,0.1083,0.0566
12534,-0.0242,-0.0147,-1.0086,0.1827,0.3221,-0.0502
12544,-0.0195,-0.0191,-1.0053,-0.0158,0.3831,-0.0197
12554,-0.0124,-0.0150,-1.0096,-0.1532,0.4137,0.0414
12564,-0.0171,-0.0159,-1.0115,-0.0463,0.0167,0.0108
12574,-0.0166,-0.0176,-1.0050,-0.0005,-0.1970,-0.0350
12584,-0.0198,-0.0135,-1.0055,0.0911,-0.3955,0.0108
12594,-0.0185,-0.0164,-1.0094,0.1369,-0.3650,-0.0655
12604,-0.0239,-0.0142,-1.0040,0.2132,-0.0291,-0.0808
12614,-0.0122,-0.0220,-1.0106,0.1674,0.3221,0.0261
12624,-0.0151,-0.0174,-1.0132,-0.0616,0.1236,-0.0044
12634,-0.0220,-0.0172,-1.0091,-0.0921,-0.0596,-0.1113
12644,-0.0232,-0.0132,-1.0128,-0.0311,-0.0596,-0.0960
12654,-0.0168,-0.0167,-1.0065,0.0605,0.1236,-0.0655
12664,-0.0217,-0.0169,-1.0074,0.0605,0.0931,0.0566
12674,-0.0200,-0.0191,-1.0082,-0.0463,0.2152,0.1024
12684,-0.0163,-0.0169,-1.0055,-0.1990,0.2152,0.0566
12694,-0.0161,-0.0150,-1.0096,-0.4433,-0.0596,-0.0044
12704,-0.0171,-0.0150,-1.0103,-0.4127,-0.3039,0.0108
12714,-0.0239,-0.0113,-0.9990,-0.3822,-0.3497,-0.0197
12724,-0.0185,-0.0172,-1.0021,-0.2906,-0.1970,0.0108
12734,-0.0178,-0.0132,-1.0031,-0.2906,-0.2123,-0.0808
12744,-0.0215,-0.0098,-0.9992,-0.2448,-0.2428,-0.1113
12754,-0.0190,-0.0108,-1.0111,-0.0921,-0.1665,-0.1113
12764,-0.0220,-0.0157,-1.0082,0.0605,-0.1207,-0.0655
12774,-0.0269,-0.0150,-1.0050,0.1521,0.1541,-0.0502
12784,-0.0168,-0.0193,-1.0048,0.2743,0.4900,0.1330
12794,-0.0198,-0.0164,-1.0123,0.2285,0.5969,0.0566
12804,-0.0163,-0.0147,-1.0132,0.1216,0.3221,-0.0044
12814,-0.0151,-0.0147,-1.0094,0.0605,0.0015,-0.0808
12824,-0.0193,-0.0186,-1.0055,-0.0616,-0.1818,-0.1113
12834,-0.0203,-0.0142,-1.0111,-0.0769,-0.4566,-0.1266
12844,-0.0242,-0.0140,-1.0019,-0.1379,-0.2734,-0.1266
12854,-0.0225,-0.0184,-1.0055,-0.1685,0.0167,0.0414
12864,-0.0195,-0.0174,-1.0152,-0.2906,0.2305,0.0261
12874,-0.0146,-0.0150,-1.0164,-0.3517,0.0778,-0.0350
12884,-0.0256,-0.0130,-1.0038,-0.4891,-0.2428,-0.1266
12894,-0.0205,-0.0142,-1.0028,-0.5349,-0.1512,-0.0502
12904,-0.0195,-0.0137,-1.0096,-0.3975,0.0778,-0.0808
12914,-0.0168,-0.0147,-1.0125,-0.1837,0.0625,-0.0350
12924,-0.0207,-0.0062,-1.0086,-0.1379,-0.0291,-0.0350
12934,-0.0178,-0.0159,-1.0161,0.0300,0.0167,-0.0808
12944,-0.0134,-0.0125,-1.0152,-0.1379,-0.2428,-0.0960
12954,-0.0173,-0.0135,-1.0142,-0.1532,-0.4260,-0.0502
12964,-0.0168,-0.0130,-1.0084,-0.2753,-0.7466,-0.1724
12974,-0.0134,-0.0218,-1.0019,-0.3059,-0.9146,-0.2792
12984,-0.0254,-0.0142,-0.9999,-0.2906,-1.0062,-0.3250
12994,-0.0266,-0.0101,-1.0016,-0.2448,-0.6398,-0.3403
13004,-0.0288,-0.0123,-1.0038,-0.0921,-0.2581,-0.1418
13014,-0.0229,-0.0106,-1.0048,0.1216,0.0473,-0.0655
13024,-0.0217,-0.0152,-1.0103,0.3659,0.0015,-0.0808
13034,-0.0229,-0.0159,-1.0074,0.3201,-0.0291,-0.1571
13044,-0.0212,-0.0142,-1.0053,0.2132,0.0320,-0.0960
13054,-0.0222,-0.0186,-1.0069,-0.0616,0.1083,-0.0655
13064,-0.0227,-0.0184,-1.0137,-0.3364,0.1389,-0.0655
13074,-0.0207,-0.0159,-1.0108,-0.3669,-0.0138,-0.0197
13084,-0.0220,-0.0142,-1.0077,-0.3975,-0.1665,-0.0960
13094,-0.0227,-0.0103,-1.0060,-0.1532,-0.3650,-0.0808
13104,-0.0237,-0.0174,-1.0062,-0.1532,-0.1360,-0.0044
13114,-0.0183,-0.0123,-1.0062,-0.2143,-0.0291,0.0261
13124,-0.0188,-0.0067,-1.0055,-0.2295,0.2152,0.1177
13134,-0.0168,-0.0096,-1.0038,-0.0463,0.2152,0.0566
13144,-0.0220,-0.0130,-1.0007,0.1674,0.0625,-0.1113
13154,-0.0261,-0.0086,-1.0002,0.5949,0.2152,0.0414
13164,-0.0124,-0.0184,-1.0130,0.7628,-0.0749,-0.0808
13174,-0.0254,-0.0233,-1.0154,0.6254,-0.4108,-0.1113
13184,-0.0281,-0.0169,-1.0077,0.4575,-0.3344,-0.0502
13194,-0.0288,-0.0252,-1.0152,0.1216,0.0473,-0.0960
13204,-0.0180,-0.0201,-1.0079,0.0300,0.1694,-0.0044
13214,-0.0222,-0.0167,-1.0108,-0.0616,0.3221,-0.0044
13224,-0.0193,-0.0167,-1.0084,-0.0921,0.1999,0.0414
13234,-0.0200,-0.0152,-1.0089,-0.1227,-0.0291,0.0566
13244,-0.0215,-0.0108,-1.0074,-0.0005,-0.3192,0.0108
13254,-0.0200,-0.0145,-1.0128,0.1063,-0.3039,-0.0350
13264,-0.0239,-0.0150,-1.0067,0.1521,-0.5176,-0.1418
13274,-0.0256,-0.0118,-1.0048,0.1979,-0.3039,-0.1113
13284,-0.0141,-0.0132,-1.0125,0.1063,-0.0596,-0.0960
13294,-0.0237,-0.0147,-1.0120,0.0300,0.0167,-0.1113
13304,-0.0198,-0.0137,-1.0043,-0.0463,0.0015,-0.0808
13314,-0.0225,-0.0106,-1.0031,0.0453,0.2610,-0.0808
13324,-0.0212,-0.0162,-1.0069,0.3201,0.4442,0.0108
13334,-0.0178,-0.0154,-1.0125,0.3659,0.4900,0.0108
13344,-0.0185,-0.0174,-1.0118,0.3506,0.2915,0.0261
13354,-0.0227,-0.0159,-1.0099,0.3353,0.0320,-0.0502
13364,-0.0185,-0.0140,-1.0072,0.2590,-0.0902,-0.1113
13374,-0.0200,-0.0198,-1.0050,0.1369,-0.1512,-0.1724
13384,-0.0237,-0.0150,-1.0040,0.1063,-0.2428,-0.0655
13394,-0.0264,-0.0174,-1.0074,0.1674,-0.1207,-0.1113
13404,-0.0281,-0.0111,-1.0014,0.2132,0.0015,-0.0350
13414,-0.0266,-0.0174,-1.0043,0.1979,0.4442,0.0108
13424,-0.0176,-0.0184,-1.0154,0.1674,0.7037,0.0108
13434,-0.0151,-0.0172,-1.0140,-0.0616,0.5053,-0.0044
13444,-0.0215,-0.0132,-1.0113,-0.2601,0.1236,-0.0502
13454,-0.0237,-0.0162,-1.0043,-0.3669,-0.1207,-0.0960
13464,-0.0212,-0.0152,-1.0016,-0.3669,-0.1054,-0.0197
13474,-0.0215,-0.0147,-1.0074,-0.2448,-0.1054,-0.0197
13484,-0.0176,-0.0145,-1.0033,-0.1227,-0.0749,-0.0197
13494,-0.0200,-0.0123,-1.0096,0.0605,-0.0596,-0.0350
13504,-0.0151,-0.0176,-1.0089,0.2132,-0.0291,-0.0350
13514,-0.0244,-0.0135,-0.9975,0.2437,-0.0749,-0.0655
13524,-0.0256,-0.0142,-1.0057,0.2285,0.0473,-0.0655
13534,-0.0237,-0.0169,-1.0132,0.2285,0.3526,0.0719
13544,-0.0237,-0.0172,-1.0154,0.2895,0.3679,-0.0197
13554,-0.0166,-0.0159,-1.0062,0.4269,0.5205,-0.0197
13564,-0.0195,-0.0191,-1.0043,0.4269,0.3984,0.0108
13574,-0.0173,-0.0172,-1.0120,0.4269,0.2305,0.0414
13584,-0.0239,-0.0218,-1.0079,0.4422,0.0625,0.0872
13594,-0.0161,-0.0223,-1.0113,0.2743,-0.0444,-0.0350
13604,-0.0146,-0.0150,-1.0094,0.0300,-0.2734,-0.1724
13614,-0.0264,-0.0132,-1.0094,-0.0311,-0.5787,-0.1571
13624,-0.0222,-0.0140,-1.0130,-0.0158,-0.4566,-0.0960
13634,-0.0180,-0.0137,-1.0038,-0.0005,-0.2276,-0.0350
13644,-0.0234,-0.0157,-1.0014,0.0911,-0.1360,-0.0044
13654,-0.0225,-0.0137,-1.0055,0.1063,0.0015,-0.0197
13664,-0.0232,-0.0142,-1.0096,0.1674,0.3679,0.0872
13674,-0.0210,-0.0176,-1.0086,0.1521,0.4442,0.0414
13684,-0.0212,-0.0262,-1.0084,0.0453,0.3984,0.0261
13694,-0.0178,-0.0150,-1.0140,0.1063,0.2457,-0.0655
13704,-0.0210,-0.0154,-1.0157,-0.0005,0.1694,-0.0350
13714,-0.0247,-0.0208,-1.0079,-0.0005,-0.1054,-0.0960
13724,-0.0271,-0.0152,-1.0074,-0.1227,-0.2428,-0.0350
13734,-0.0303,-0.0186,-1.0053,-0.1990,-0.1665,0.0261
13744,-0.0234,-0.0120,-1.0072,-0.2295,0.1083,0.1024
13754,-0.0237,-0.0135,-1.0086,-0.1532,0.3221,0.0719
13764,-0.0269,-0.0130,-1.0084,-0.0616,0.5816,0.0566
13774,-0.0200,-0.0196,-1.0173,0.0605,0.6732,0.0719
13784,-0.0190,-0.0179,-1.0072,0.1063,0.6427,-0.0044
13794,-0.0171,-0.0132,-1.0200,-0.0769,0.3068,0.0108
13804,-0.0193,-0.0164,-1.0074,-0.1990,0.0015,-0.0960
13814,-0.0239,-0.0159,-1.0024,-0.1532,-0.2276,-0.0960
13824,-0.0215,-0.0152,-1.0082,-0.2448,0.0015,-0.0350
13834,-0.0217,-0.0137,-1.0062,-0.2143,0.1389,0.0414
13844,-0.0254,-0.0142,-1.0011,-0.1074,0.1083,-0.0197
13854,-0.0242,-0.0140,-1.0067,-0.0005,0.1847,0.0108
13864,-0.0247,-0.0164,-1.0074,0.1216,0.3831,0.0414
13874,-0.0220,-0.0152,-1.0111,0.1521,0.3526,0.0108
13884,-0.0249,-0.0132,-1.0074,0.1369,0.3984,-0.0808
13894,-0.0163,-0.0174,-1.0111,0.0605,0.4747,-0.0197
13904,-0.0200,-0.0130,-1.0111,0.1216,0.3068,-0.0197
13914,-0.0185,-0.0108,-1.0067,0.2132,-0.0138,-0.0502
13924,-0.0212,-0.0152,-1.0057,0.2132,-0.2886,-0.1418
13934,-0.0232,-0.0145,-1.0108,0.2895,-0.1818,-0.0502
13944,-0.0193,-0.0201,-1.0149,0.2895,-0.0902,-0.1266
13954,-0.0168,-0.0167,-1.0089,0.0911,-0.0902,-0.1266
13964,-0.0271,-0.0176,-0.9965,-0.1532,-0.0291,-0.1418
13974,-0.0198,-0.0206,-1.0113,-0.1532,0.4289,-0.0502
13984,-0.0205,-0.0196,-1.0072,-0.2143,0.7190,-0.0197
13994,-0.0166,-0.0159,-1.0123,-0.2448,0.6732,0.1024
14004,-0.0183,-0.0176,-1.0198,-0.2906,0.4289,0.0872
14014,-0.0203,-0.0150,-1.0082,-0.2295,0.0625,0.0261
14024,-0.0173,-0.0179,-1.0079,-0.2601,-0.2734,0.0108
14034,-0.0242,-0.0132,-1.0103,-0.2143,-0.4566,-0.0808
14044,-0.0291,-0.0086,-1.0026,-0.1532,-0.4413,-0.0960
14054,-0.0274,-0.0108,-1.0050,0.0453,-0.2734,-0.0960
14064,-0.0207,-0.0145,-1.0125,0.2437,0.1236,-0.0044
14074,-0.0185,-0.0128,-1.0048,0.4422,0.0320,-0.0350
14084,-0.0274,-0.0135,-1.0103,0.3201,-0.1512,-0.1418
14094,-0.0252,-0.0145,-1.0055,0.3353,-0.0138,-0.0960
14104,-0.0232,-0.0154,-1.0057,0.3201,0.3221,-0.0502
14114,-0.0220,-0.0145,-1.0108,0.2895,0.5205,-0.0197
14124,-0.0193,-0.0164,-1.0069,0.1216,0.3831,-0.0044
14134,-0.0239,-0.0162,-1.0082,0.0605,0.1999,-0.0044
14144,-0.0252,-0.0150,-1.0062,-0.0463,0.2763,-0.0655
14154,-0.0205,-0.0206,-1.0120,-0.0463,0.4289,-0.0197
14164,-0.0173,-0.0203,-1.0002,-0.0158,0.2305,0.0261
14174,-0.0259,-0.0157,-1.0050,0.0605,0.0015,-0.0350
14184,-0.0217,-0.0193,-1.0040,0.1674,-0.0291,0.0108
14194,-0.0188,-0.0196,-1.0094,0.1063,-0.1054,-0.0197
14204,-0.0198,-0.0142,-1.0111,0.1063,-0.1512,-0.0197
14214,-0.0207,-0.0193,-1.0103,0.0300,-0.0138,0.0261
14224,-0.0205,-0.0130,-1.0011,-0.1074,-0.0138,0.0108
14234,-0.0281,-0.0106,-1.0062,-0.2906,0.2457,0.0108
14244,-0.0190,-0.0152,-1.0101,-0.1532,0.4900,0.0872
14254,-0.0215,-0.0164,-1.0113,-0.0158,0.5205,0.0566
14264,-0.0207,-0.0142,-1.0142,0.0300,0.1236,-0.0808
14274,-0.0242,-0.0181,-1.0086,-0.1379,-0.1818,0.0108
14284,-0.0288,-0.0132,-1.0103,-0.1227,-0.1970,-0.0197
14294,-0.0229,-0.0135,-1.0120,0.0453,-0.1054,-0.0197
14304,-0.0178,-0.0223,-1.0060,0.0300,-0.1665,-0.0502
14314,-0.0225,-0.0130,-1.0036,0.0147,-0.3192,-0.1266
14324,-0.0333,-0.0176,-1.0033,-0.0769,-0.1207,-0.0960
14334,-0.0217,-0.0184,-1.0062,0.1827,0.4595,0.0261
14344,-0.0180,-0.0137,-1.0118,0.2285,0.3831,0.0566
14354,-0.0161,-0.0130,-1.0091,0.2743,-0.0291,0.0108
14364,-0.0242,-0.0154,-1.0011,0.0453,-0.3802,-0.0808
14374,-0.0330,-0.0093,-1.0024,-0.0921,-0.2428,-0.0350
14384,-0.0149,-0.0184,-1.0115,0.1521,0.3984,0.1024
14394,-0.0119,-0.0203,-1.0229,0.1063,0.3526,0.0261
14404,-0.0244,-0.0115,-1.0159,0.2132,-0.1512,-0.0808
14414,-0.0178,-0.0181,-1.0149,0.0453,-0.3497,-0.0350
14424,-0.0340,-0.0213,-1.0033,-0.2143,-0.4260,-0.1418
14434,-0.0220,-0.0120,-1.0043,0.0911,0.0320,-0.0502
14444,-0.0207,-0.0211,-1.0181,0.1369,0.0931,0.0414
14454,-0.0247,-0.0233,-0.9951,0.1827,0.1083,-0.0350
14464,-0.0276,-0.0176,-1.0031,-0.0005,0.0625,-0.0350
14474,-0.0220,-0.0237,-1.0082,-0.1379,0.2305,-0.0350
14484,-0.0146,-0.0150,-1.0086,-0.1227,0.3221,-0.0350
14494,-0.0203,-0.0196,-1.0101,-0.1837,0.0778,-0.0655
14504,-0.0244,-0.0174,-0.9997,-0.3517,-0.0902,-0.0655
14514,-0.0291,-0.0128,-1.0040,-0.3211,0.0015,-0.0044
14524,-0.0146,-0.0152,-1.0164,-0.2601,0.3679,0.0566
14534,-0.0158,-0.0132,-1.0176,-0.1990,0.2610,0.0261
14544,-0.0195,-0.0106,-1.0053,-0.2601,-0.1360,-0.0502
14554,-0.0293,-0.0093,-1.0040,-0.3669,-0.2123,-0.0655
14564,-0.0188,-0.0106,-1.0069,-0.2753,0.0778,-0.0197
14574,-0.0163,-0.0157,-1.0099,-0.1379,0.2305,-0.0808
14584,-0.0210,-0.0145,-1.0082,-0.0921,0.0931,-0.0350
14594,-0.0261,-0.0162,-1.0016,-0.0005,0.0320,-0.0960
14604,-0.0225,-0.0157,-1.0089,0.1369,0.0473,-0.1113
14614,-0.0222,-0.0142,-1.0065,0.2132,-0.0444,-0.0655
14624,-0.0220,-0.0145,-1.0069,0.3659,-0.1512,-0.1266
14634,-0.0239,-0.0186,-1.0072,0.4880,-0.2581,-0.1418
14644,-0.0222,-0.0201,-1.0091,0.4422,-0.2734,-0.1266
14654,-0.0244,-0.0150,-1.0094,0.1827,-0.3192,-0.0808
14664,-0.0264,-0.0196,-1.0067,-0.1532,0.0320,-0.0502
14674,-0.0217,-0.0215,-1.0176,-0.4585,0.1541,-0.0197
14684,-0.0180,-0.0211,-1.0065,-0.7181,-0.0138,-0.0502
14694,-0.0242,-0.0169,-1.0137,-0.9013,-0.2734,-0.0655
14704,-0.0220,-0.0123,-1.0038,-0.8250,-0.3650,-0.0655
14714,-0.0256,-0.0118,-1.0016,-0.7181,-0.1818,-0.0808
14724,-0.0217,-0.0132,-1.0014,-0.5044,-0.0138,0.0108
14734,-0.0229,-0.0125,-1.0096,-0.2753,0.1236,-0.0502
14744,-0.0207,-0.0059,-1.0007,-0.0616,0.3679,-0.0350
14754,-0.0242,-0.0081,-1.0031,0.0147,0.2915,0.0108
14764,-0.0212,-0.0086,-1.0091,0.1674,0.1999,0.0261
14774,-0.0190,-0.0140,-1.0086,0.2285,0.1389,-0.0655
14784,-0.0227,-0.0140,-1.0055,0.2895,0.0320,-0.0502
14794,-0.0200,-0.0164,-1.0115,0.3353,0.0320,-0.0655
14804,-0.0207,-0.0164,-1.0040,0.3201,-0.0596,-0.0350
14814,-0.0244,-0.0137,-1.0069,0.3506,0.0015,-0.0350
14824,-0.0237,-0.0206,-1.0084,0.3048,0.0931,-0.0960
14834,-0.0200,-0.0162,-1.0137,0.1979,0.0320,-0.0197
14844,-0.0249,-0.0176,-0.9997,0.1827,-0.1970,-0.0350
14854,-0.0217,-0.0164,-1.0079,0.2132,-0.1054,-0.0808
14864,-0.0203,-0.0159,-1.0096,0.1521,-0.0444,-0.0502
14874,-0.0227,-0.0123,-1.0065,0.2132,0.0320,-0.0197
14884,-0.0256,-0.0132,-1.0050,0.2132,0.0625,0.0414
14894,-0.0176,-0.0147,-1.0111,0.2590,0.2305,0.0108
14904,-0.0166,-0.0145,-1.0120,0.2743,0.1389,-0.0502
14914,-0.0254,-0.0159,-1.0072,0.3048,-0.0138,-0.1418
14924,-0.0254,-0.0193,-1.0007,0.1979,-0.2886,-0.0960
14934,-0.0239,-0.0123,-1.0053,0.1216,-0.1665,-0.0960
14944,-0.0185,-0.0113,-1.0120,0.1063,-0.0749,-0.0655
14954,-0.0200,-0.0140,-1.0038,0.0758,-0.1207,-0.0197
14964,-0.0212,-0.0111,-1.0053,0.0147,-0.0444,-0.0502
14974,-0.0247,-0.0123,-1.0161,0.0758,0.0015,-0.0808
14984,-0.0129,-0.0145,-1.0094,0.3048,-0.1054,0.0108
14994,-0.0239,-0.0154,-1.0009,0.4117,-0.1360,-0.1113
15004,-0.0323,-0.0223,-0.9910,0.3659,-0.0138,-0.0808
15014,-0.0259,-0.0186,-1.0072,0.3353,0.3831,0.0108
15024,-0.0129,-0.0154,-1.0144,0.3659,0.5205,0.0108
15034,-0.0203,-0.0167,-1.0103,0.3506,0.2152,-0.0044
15044,-0.0249,-0.0172,-1.0118,0.2590,-0.0444,0.0261
15054,-0.0247,-0.0242,-1.0016,0.0605,-0.0596,-0.1266
15064,-0.0239,-0.0157,-1.0060,0.0300,-0.0749,-0.0960
15074,-0.0163,-0.0184,-1.0164,0.1369,-0.0749,-0.0350
15084,-0.0185,-0.0201,-1.0113,0.1521,0.0015,0.0108
15094,-0.0252,-0.0196,-0.9936,0.0758,-0.0749,-0.0044
15104,-0.0315,-0.0118,-1.0014,0.0300,0.2610,-0.0350
15114,-0.0193,-0.0130,-1.0084,-0.0311,0.5816,0.0414
15124,-0.0180,-0.0186,-1.0091,-0.1227,0.5205,-0.0502
15134,-0.0220,-0.0120,-1.0021,-0.1532,0.0473,-0.0502
15144,-0.0256,-0.0128,-1.0019,-0.1532,-0.1207,-0.0197
15154,-0.0232,-0.0125,-1.0082,-0.0769,0.0473,0.0261
15164,-0.0166,-0.0157,-1.0161,0.0300,0.1389,-0.0502
15174,-0.0259,-0.0135,-1.0024,0.1216,-0.1054,-0.0502
15184,-0.0247,-0.0123,-1.0045,0.1827,0.0473,-0.0044
15194,-0.0190,-0.0169,-1.0103,0.2437,0.4289,-0.0502
15204,-0.0176,-0.0218,-1.0130,0.1521,0.4442,-0.0808
15214,-0.0210,-0.0176,-1.0077,-0.0311,0.1999,-0.0655
15224,-0.0281,-0.0123,-1.0038,-0.1074,0.1236,-0.1418
15234,-0.0288,-0.0172,-1.0038,-0.0005,0.3373,-0.0350
15244,-0.0207,-0.0152,-1.0084,0.1521,0.4289,0.0414
15254,-0.0234,-0.0091,-1.0053,0.2437,0.1999,-0.0350
15264,-0.0207,-0.0159,-1.0094,0.2285,0.1999,0.0261
15274,-0.0225,-0.0181,-1.0135,0.1827,0.1541,-0.0655
15284,-0.0153,-0.0191,-1.0096,0.1063,-0.0444,-0.1266
15294,-0.0222,-0.0154,-1.0108,-0.2143,-0.2886,-0.2029
15304,-0.0293,-0.0184,-1.0004,-0.2448,-0.2123,-0.0960
15314,-0.0210,-0.0203,-1.0038,-0.1990,0.1541,-0.0655
15324,-0.0215,-0.0181,-1.0130,0.0605,0.4900,0.0719
15334,-0.0190,-0.0215,-1.0108,0.0758,0.5358,0.1024
15344,-0.0234,-0.0081,-1.0094,0.1369,0.5969,-0.0044
15354,-0.0139,-0.0181,-1.0176,0.2437,0.6121,-0.0197
15364,-0.0198,-0.0184,-1.0120,0.1521,0.4289,-0.1113
15374,-0.0210,-0.0218,-1.0057,-0.0769,0.1236,-0.0808
15384,-0.0254,-0.0184,-1.0045,-0.2601,0.1541,-0.0502
15394,-0.0163,-0.0206,-1.0106,-0.0921,0.1541,0.0414
15404,-0.0198,-0.0152,-1.0123,-0.2143,-0.0444,-0.0044
15414,-0.0215,-0.0157,-1.0103,-0.3975,-0.2428,-0.1266
15424,-0.0254,-0.0108,-1.0069,-0.3364,-0.1818,-0.1113
15434,-0.0210,-0.0093,-1.0096,-0.2143,-0.1207,-0.0808
15444,-0.0247,-0.0154,-1.0065,-0.1990,0.0015,-0.0655
15454,-0.0254,-0.0154,-1.0031,-0.1837,0.0778,-0.0808
15464,-0.0234,-0.0115,-1.0053,-0.2143,0.1389,-0.0960
15474,-0.0207,-0.0179,-1.0096,-0.0769,0.1541,-0.1266
15484,-0.0259,-0.0145,-1.0057,-0.0616,0.0625,-0.0655
15494,-0.0254,-0.0103,-1.0101,0.1521,0.1389,0.0719
15504,-0.0244,-0.0135,-1.0103,0.3353,0.2915,0.0414
15514,-0.0269,-0.0125,-1.0057,0.3659,0.5358,-0.0197
15524,-0.0171,-0.0189,-1.0140,0.3506,0.5053,0.0566
15534,-0.0173,-0.0154,-1.0111,0.2437,0.3068,-0.0197
15544,-0.0178,-0.0206,-1.0086,0.1216,-0.1207,-0.1266
15554,-0.0259,-0.0203,-1.0019,-0.0311,-0.2581,-0.0960
15564,-0.0256,-0.0118,-0.9999,-0.0769,0.0015,-0.0655
15574,-0.0168,-0.0206,-1.0135,-0.1379,0.1541,0.1940
15584,-0.0195,-0.0147,-1.0108,-0.1837,0.0167,0.0414
15594,-0.0254,-0.0198,-1.0057,-0.1837,-0.0596,0.0261
15604,-0.0195,-0.0172,-1.0113,-0.0921,0.0473,-0.0808
15614,-0.0212,-0.0142,-1.0091,-0.1379,0.0931,-0.0655
15624,-0.0274,-0.0181,-1.0033,-0.2753,0.0320,-0.1266
15634,-0.0247,-0.0135,-1.0043,-0.3822,-0.0596,-0.1571
15644,-0.0237,-0.0125,-1.0038,-0.3364,-0.0444,-0.1113
15654,-0.0303,-0.0084,-1.0043,-0.1685,-0.0596,-0.0502
15664,-0.0173,-0.0062,-1.0053,0.1369,0.0015,0.0719
15674,-0.0254,-0.0211,-0.9987,0.2895,-0.0749,-0.0044
15684,-0.0306,-0.0120,-1.0094,0.3964,-0.1665,-0.0350
15694,-0.0244,-0.0069,-1.0057,0.3811,0.0167,0.0414
15704,-0.0158,-0.0184,-1.0149,0.3811,0.1999,0.0108
15714,-0.0217,-0.0140,-1.0062,0.3353,0.2763,-0.0655
15724,-0.0203,-0.0179,-1.0130,0.3506,0.2915,-0.0808
15734,-0.0168,-0.0235,-1.0166,0.2437,0.0473,-0.0960
15744,-0.0217,-0.0164,-1.0128,0.2590,-0.2734,-0.0655
15754,-0.0242,-0.0208,-1.0060,0.1063,-0.1818,-0.0197
15764,-0.0212,-0.0208,-1.0060,-0.0311,-0.2581,-0.0197
15774,-0.0210,-0.0172,-1.0057,-0.0921,-0.3344,-0.0044
15784,-0.0254,-0.0157,-1.0038,-0.2753,-0.3650,-0.0655
15794,-0.0269,-0.0128,-1.0021,-0.2143,-0.0902,-0.0502
15804,-0.0210,-0.0172,-1.0026,-0.0616,0.1541,-0.0350
15814,-0.0232,-0.0179,-1.0072,-0.0158,0.3984,-0.0197
15824,-0.0264,-0.0137,-1.0048,-0.0158,0.4595,-0.0197
15834,-0.0188,-0.0167,-1.0144,0.0453,0.4137,-0.0197
15844,-0.0222,-0.0123,-1.0144,-0.0005,0.1541,-0.1113
15854,-0.0212,-0.0118,-1.0031,-0.0158,-0.1818,-0.1418
15864,-0.0355,-0.0106,-0.9965,0.0911,-0.1970,-0.1418
15874,-0.0156,-0.0140,-1.0060,0.1674,0.0167,-0.0808
15884,-0.0225,-0.0089,-1.0036,0.3201,0.1083,-0.1571
15894,-0.0234,-0.0208,-1.0099,0.3353,0.2763,-0.0502
15904,-0.0215,-0.0057,-1.0178,0.4575,0.4595,0.0261
15914,-0.0153,-0.0201,-1.0144,0.6254,0.2457,-0.0808
15924,-0.0234,-0.0242,-1.0069,0.4880,-0.2428,-0.0655
15934,-0.0237,-0.0167,-1.0053,0.3811,-0.4566,-0.0960
15944,-0.0256,-0.0211,-1.0048,0.2132,-0.3497,-0.1571
15954,-0.0288,-0.0213,-1.0019,0.0147,0.0320,-0.0655
15964,-0.0166,-0.0264,-1.0130,-0.0616,0.3221,0.0261
15974,-0.0232,-0.0176,-1.0118,-0.3669,0.2763,-0.0044
15984,-0.0198,-0.0237,-1.0021,-0.4891,0.3984,-0.0197
15994,-0.0212,-0.0162,-1.0086,-0.5807,0.3831,-0.0808
16004,-0.0185,-0.0089,-1.0115,-0.6876,0.2457,-0.0655
16014,-0.0212,-0.0076,-1.0089,-0.5960,-0.1054,-0.1113
16024,-0.0266,-0.0093,-1.0074,-0.4433,-0.2581,-0.0655
16034,-0.0266,-0.0054,-0.9999,-0.1685,-0.2276,-0.0197
16044,-0.0225,-0.0106,-1.0036,-0.0769,0.0320,0.0108
16054,-0.0188,-0.0162,-1.0125,0.1063,0.0778,0.0108
16064,-0.0244,-0.0084,-1.0062,0.1979,0.0167,-0.0960
16074,-0.0212,-0.0142,-1.0074,0.3201,0.1083,-0.0350
16084,-0.0225,-0.0186,-1.0084,0.1827,0.1847,-0.0350
16094,-0.0225,-0.0152,-1.0101,0.0758,0.2610,-0.1113
16104,-0.0205,-0.0203,-1.0086,0.0605,0.3679,-0.0197
16114,-0.0195,-0.0198,-1.0111,0.1827,0.3373,-0.0350
16124,-0.0171,-0.0189,-1.0106,0.1369,0.1083,0.0719
16134,-0.0227,-0.0235,-1.0082,0.1063,-0.1360,-0.1113
16144,-0.0259,-0.0162,-1.0072,0.0300,-0.0902,-0.1571
16154,-0.0259,-0.0181,-1.0038,-0.0921,0.1541,-0.1724
16164,-0.0261,-0.0206,-1.0053,-0.1685,0.3831,-0.0502
16174,-0.0180,-0.0186,-1.0159,-0.2295,0.3984,0.0108
16184,-0.0225,-0.0167,-1.0040,-0.4127,0.1999,-0.1113
16194,-0.0239,-0.0130,-1.0101,-0.4585,0.2152,-0.1571
16204,-0.0183,-0.0081,-1.0084,-0.4585,0.1999,-0.1724
16214,-0.0217,-0.0135,-1.0077,-0.4433,0.0167,-0.1266
16224,-0.0220,-0.0089,-1.0024,-0.4127,-0.1512,-0.0808
16234,-0.0222,-0.0157,-1.0072,-0.3669,0.1236,-0.0502
16244,-0.0166,-0.0145,-1.0053,-0.2448,0.0778,-0.0502
16254,-0.0210,-0.0145,-1.0060,-0.2143,0.0473,0.0261
16264,-0.0207,-0.0130,-1.0002,-0.0769,0.2152,-0.0044
16274,-0.0222,-0.0120,-1.0106,0.1216,0.2305,-0.0808
16284,-0.0271,-0.0154,-1.0060,0.2590,0.2457,-0.0808
16294,-0.0188,-0.0174,-1.0103,0.3964,0.2152,-0.0502
16304,-0.0232,-0.0181,-1.0086,0.3811,0.2305,-0.0502
16314,-0.0210,-0.0196,-1.0203,0.1827,0.1236,-0.0655
