timestamp_ms,ax,ay,az,gx,gy,gz
3964,-0.1088,0.0197,-0.9922,-0.2932,-0.1106,0.1680
3974,-0.1093,0.0187,-0.9973,-0.2169,0.1184,0.1527
3984,-0.1058,0.0199,-0.9990,-0.0337,0.3169,0.0001
3994,-0.1120,0.0187,-1.0036,-0.0489,0.5306,-0.0915
4004,-0.1130,0.0170,-1.0084,-0.0947,0.5001,-0.1679
4014,-0.1171,0.0185,-1.0048,-0.2016,0.3321,-0.1679
4024,-0.1132,0.0168,-0.9958,-0.2779,0.0726,-0.0457
4034,-0.1130,0.0155,-0.9999,-0.2474,0.0115,-0.0152
4044,-0.1076,0.0134,-1.0045,-0.1863,0.0726,0.1680
4054,-0.1100,0.0153,-0.9973,-0.1711,0.1947,0.1222
4064,-0.1073,0.0163,-1.0099,-0.1863,0.3321,0.0306
4074,-0.1135,0.0153,-1.0009,-0.2169,0.2863,0.0153
4084,-0.1071,0.0160,-1.0011,-0.1558,0.3016,0.0306
4094,-0.1112,0.0163,-1.0024,-0.0184,0.1184,0.0001
4104,-0.1078,0.0148,-1.0016,0.1648,-0.0037,-0.0152
4114,-0.1036,0.0212,-1.0053,0.1343,-0.0190,0.0306
4124,-0.1081,0.0155,-1.0140,0.1037,-0.2175,0.0153
4134,-0.1105,0.0190,-1.0043,0.1037,-0.2327,0.0153
4144,-0.1154,0.0160,-1.0009,0.1495,-0.0953,-0.1221
4154,-0.1176,0.0158,-1.0009,-0.0337,-0.0190,-0.1221
4164,-0.1103,0.0163,-0.9995,-0.0642,0.0268,-0.0610
4174,-0.1112,0.0129,-0.9949,-0.0184,-0.0037,-0.1679
4184,-0.1149,0.0175,-1.0101,0.0274,-0.0801,-0.2442
4194,-0.1135,0.0138,-1.0019,-0.1405,-0.3396,-0.1221
4204,-0.1108,0.0146,-1.0021,-0.1711,-0.5839,-0.0457
4214,-0.1137,0.0182,-1.0024,-0.1711,-0.7366,0.0001
4224,-0.1147,0.0121,-0.9999,-0.0642,-0.5839,-0.0305
4234,-0.1063,0.0180,-0.9992,0.0427,-0.3244,0.0001
4244,-0.1078,0.0146,-0.9978,0.0427,-0.0343,-0.0305
4254,-0.1068,0.0202,-1.0033,0.0732,0.1337,-0.0457
4264,-0.1105,0.0129,-1.0069,0.1343,0.0726,-0.0305
4274,-0.1127,0.0170,-1.0079,0.2106,-0.1106,-0.0610
4284,-0.1137,0.0187,-1.0053,0.1801,-0.2175,-0.0763
4294,-0.1115,0.0146,-1.0021,0.1343,-0.1411,0.0153
4304,-0.1139,0.0170,-1.0038,0.0274,-0.0801,0.0153
4314,-0.1154,0.0131,-0.9956,0.0579,0.0421,0.0001
4324,-0.1132,0.0163,-1.0031,-0.1100,0.2863,0.0153
4334,-0.1122,0.0114,-1.0057,-0.3695,0.3169,0.0306
4344,-0.1117,0.0143,-0.9995,-0.4764,0.3932,0.0001
4354,-0.1108,0.0146,-1.0009,-0.5833,0.3627,-0.0457
4364,-0.1108,0.0168,-0.9968,-0.6291,0.2100,-0.0763
4374,-0.1135,0.0148,-0.9997,-0.3848,0.1642,-0.0610
4384,-0.1103,0.0158,-0.9995,-0.2169,0.1642,-0.1221
4394,-0.1117,0.0209,-1.0021,-0.0795,0.1642,0.0153
4404,-0.1081,0.0207,-1.0045,-0.1253,0.0268,0.0459
4414,-0.1152,0.0136,-1.0077,-0.3543,0.0268,0.0611
4424,-0.1088,0.0102,-1.0077,-0.7207,0.0268,0.0306
4434,-0.1090,0.0146,-1.0072,-0.7818,-0.1106,-0.0610
4444,-0.1110,0.0173,-0.9963,-0.4611,-0.0190,0.0459
4454,-0.1132,0.0185,-0.9963,-0.0337,-0.2633,0.0153
4464,-0.1120,0.0219,-1.0065,0.3785,-0.4465,0.0611
4474,-0.1088,0.0173,-0.9963,0.6992,-0.6602,0.0764
4484,-0.1105,0.0177,-0.9990,0.8213,-0.7518,-0.0152
4494,-0.1142,0.0141,-1.0053,0.7450,-0.7213,-0.2289
4504,-0.1105,0.0160,-1.0060,0.6076,-0.7366,-0.1373
4514,-0.1152,0.0114,-0.9995,0.3175,-0.5534,-0.2137
4524,-0.1147,0.0158,-1.0014,-0.0031,-0.4465,-0.1526
4534,-0.1157,0.0126,-0.9995,0.0732,-0.2327,-0.0915
4544,-0.1159,0.0134,-0.9939,0.2869,0.0115,-0.1068
4554,-0.1184,0.0138,-1.0021,0.3938,0.0268,0.0001
4564,-0.1095,0.0131,-1.0069,0.5160,-0.0037,0.1069
4574,-0.1164,0.0224,-1.0079,0.4702,-0.0190,0.1375
4584,-0.1105,0.0243,-1.0077,0.3022,0.0879,0.1375
4594,-0.1117,0.0146,-1.0094,-0.0031,0.1795,0.1375
4604,-0.1100,0.0153,-1.0050,-0.1253,0.2711,0.0611
4614,-0.1184,0.0141,-1.0067,-0.2627,0.3016,0.0001
4624,-0.1125,0.0158,-0.9980,-0.3543,0.4543,0.0459
4634,-0.1112,0.0175,-0.9949,-0.2779,0.3321,0.1222
4644,-0.1076,0.0155,-0.9992,-0.0642,0.2405,0.1222
4654,-0.1088,0.0185,-1.0019,0.1037,0.2558,0.0153
4664,-0.1093,0.0138,-1.0072,0.3175,0.1795,-0.0152
4674,-0.1135,0.0177,-1.0060,0.2411,0.1489,-0.1068
4684,-0.1100,0.0121,-1.0038,0.0732,0.1031,-0.1373
4694,-0.1144,0.0160,-1.0033,-0.0795,0.0268,-0.1373
4704,-0.1149,0.0153,-1.0036,-0.0489,-0.2175,-0.1221
4714,-0.1147,0.0136,-1.0048,-0.2169,-0.2022,-0.0457
4724,-0.1149,0.0153,-1.0031,-0.1100,-0.2175,-0.0305
4734,-0.1066,0.0134,-1.0011,-0.0184,-0.2022,-0.0457
4744,-0.1127,0.0138,-1.0016,0.0274,-0.2022,-0.0763
4754,-0.1127,0.0143,-0.9975,0.0885,-0.1564,-0.0152
4764,-0.1108,0.0185,-1.0011,0.1190,-0.1564,-0.0305
4774,-0.1115,0.0141,-1.0004,0.1801,-0.0801,-0.0152
4784,-0.1127,0.0155,-0.9939,0.2869,0.0879,-0.0763
4794,-0.1149,0.0126,-1.0045,0.2717,0.1184,-0.0915
4804,-0.1120,0.0126,-1.0028,0.2411,0.1337,-0.1221
4814,-0.1149,0.0141,-1.0004,0.0732,0.1337,0.0001
4824,-0.1157,0.0180,-1.0048,-0.0184,0.1489,0.0001
4834,-0.1181,0.0182,-1.0002,-0.0031,0.1642,-0.0152
4844,-0.1130,0.0163,-1.0074,0.0274,0.1184,0.0001
4854,-0.1117,0.0165,-1.0040,-0.0795,0.0268,0.0764
4864,-0.1108,0.0153,-1.0002,-0.0795,0.0268,0.0611
4874,-0.1127,0.0199,-0.9965,-0.2321,0.1795,0.1069
4884,-0.1103,0.0134,-1.0016,-0.2779,0.2863,0.0153
4894,-0.1093,0.0138,-1.0007,-0.2932,0.3932,0.0764
4904,-0.1103,0.0136,-0.9970,-0.2627,0.2253,0.0764
4914,-0.1068,0.0195,-1.0007,-0.1100,0.1795,0.1527
4924,-0.1081,0.0180,-1.0040,-0.1863,0.1642,0.0459
4934,-0.1046,0.0224,-0.9995,-0.1711,0.2558,0.0459
4944,-0.1083,0.0199,-1.0050,-0.1558,0.3779,-0.0152
4954,-0.1149,0.0141,-1.0043,-0.2016,0.3779,0.0306
4964,-0.1115,0.0180,-0.9990,-0.3543,0.3016,0.0459
4974,-0.1122,0.0136,-0.9975,-0.3848,0.2100,0.1375
4984,-0.1171,0.0168,-0.9990,-0.3848,0.2558,0.0917
4994,-0.1105,0.0146,-1.0065,-0.3848,0.1947,0.1222
5004,-0.1098,0.0173,-0.9987,-0.1253,0.1947,0.1527
5014,-0.1088,0.0175,-1.0038,-0.1558,0.0573,0.1222
5024,-0.1098,0.0134,-1.0038,-0.1711,0.0268,0.0153
5034,-0.1142,0.0143,-1.0040,-0.1405,-0.0037,0.0611
5044,-0.1132,0.0187,-0.9978,-0.3695,0.0879,0.2444
5054,-0.1147,0.0092,-0.9903,-0.3543,0.2711,0.1985
5064,-0.1144,0.0124,-1.0031,-0.2169,0.3627,0.0459
5074,-0.1117,0.0143,-1.0038,-0.1405,0.2405,0.0459
5084,-0.1103,0.0146,-1.0016,-0.0795,0.1947,0.0306
5094,-0.1073,0.0207,-1.0028,-0.0489,0.0115,-0.0152
5104,-0.1103,0.0190,-0.9978,-0.0489,-0.1259,0.0611
5114,-0.1147,0.0226,-0.9985,-0.2321,-0.0953,0.1069
5124,-0.1122,0.0192,-0.9992,-0.2321,0.1031,0.1375
5134,-0.1090,0.0197,-0.9961,-0.1100,-0.0037,0.0306
5144,-0.1176,0.0190,-1.0004,0.0427,0.0268,-0.0305
5154,-0.1122,0.0146,-0.9995,0.2717,-0.0495,-0.0457
5164,-0.1117,0.0153,-1.0069,0.5160,-0.1869,-0.0152
5174,-0.1115,0.0175,-1.0048,0.4396,-0.3244,-0.1068
5184,-0.1100,0.0168,-1.0094,0.2869,-0.4007,-0.1221
5194,-0.1125,0.0180,-1.0033,0.1037,-0.3396,-0.0610
5204,-0.1100,0.0187,-1.0074,-0.1405,-0.1869,-0.0763
5214,-0.1152,0.0080,-1.0065,-0.2016,-0.1564,-0.0763
5224,-0.1120,0.0143,-1.0021,-0.1253,-0.0495,0.0306
5234,-0.1186,0.0134,-1.0019,-0.0795,0.0573,0.0306
5244,-0.1152,0.0141,-1.0031,0.0274,0.1031,0.0459
5254,-0.1127,0.0129,-0.9995,-0.0795,0.2253,-0.0763
5264,-0.1083,0.0173,-1.0072,-0.2016,0.2253,0.0001
5274,-0.1115,0.0177,-1.0045,-0.1711,0.2253,0.0764
5284,-0.1110,0.0226,-0.9980,-0.2474,0.3474,0.1222
5294,-0.1120,0.0148,-0.9941,-0.0184,0.2405,0.1527
5304,-0.1181,0.0163,-0.9963,0.0885,0.0726,0.2138
5314,-0.1115,0.0182,-1.0026,0.1801,0.1031,0.0764
5324,-0.1112,0.0173,-0.9941,0.1495,0.0115,0.1222
5334,-0.1081,0.0143,-0.9963,0.2106,-0.1411,0.1527
5344,-0.1046,0.0197,-1.0043,0.2106,-0.1717,0.0764
5354,-0.1088,0.0141,-1.0033,0.1801,-0.1869,0.1222
5364,-0.1098,0.0204,-1.0007,0.2869,-0.1869,0.0459
5374,-0.1093,0.0151,-1.0062,0.2717,-0.0495,0.0917
5384,-0.1117,0.0141,-0.9982,0.2259,0.1031,0.0459
5394,-0.1110,0.0197,-1.0007,0.2564,0.2100,-0.0610
5404,-0.1135,0.0109,-1.0036,0.2411,0.0573,-0.0915
5414,-0.1127,0.0148,-1.0011,0.0885,-0.0037,-0.1068
5424,-0.1166,0.0190,-1.0040,-0.0337,0.1184,-0.0763
5434,-0.1120,0.0160,-1.0019,-0.1405,0.3016,-0.0152
5444,-0.1139,0.0173,-1.0026,-0.1100,0.3016,0.1222
5454,-0.1144,0.0158,-0.9973,-0.0489,0.2711,0.0611
5464,-0.1078,0.0175,-1.0045,-0.0642,0.1031,0.0459
5474,-0.1125,0.0146,-1.0050,-0.0642,-0.0495,0.0306
5484,-0.1112,0.0177,-0.9995,-0.0795,-0.2327,0.0153
5494,-0.1085,0.0099,-1.0045,-0.0947,-0.2022,-0.0305
5504,-0.1056,0.0136,-1.0014,-0.0489,0.0421,-0.0610
5514,-0.1144,0.0160,-0.9997,0.1648,0.0879,-0.0610
5524,-0.1088,0.0158,-1.0024,0.2717,-0.0037,0.0611
5534,-0.1103,0.0148,-0.9958,0.4702,-0.0343,0.1069
5544,-0.1103,0.0158,-0.9956,0.5770,-0.2327,0.1069
5554,-0.1090,0.0173,-1.0060,0.4244,-0.2480,0.0153
5564,-0.1137,0.0146,-1.0089,0.1648,-0.1564,-0.0915
5574,-0.1112,0.0160,-1.0038,-0.0337,-0.1259,-0.1068
5584,-0.1130,0.0119,-0.9970,-0.2474,0.0115,-0.0610
5594,-0.1144,0.0131,-0.9965,-0.2779,0.1031,0.0459
5604,-0.1117,0.0168,-1.0048,-0.0642,0.1031,0.0306
5614,-0.1103,0.0165,-0.9987,0.0274,0.0726,0.1527
5624,-0.1108,0.0160,-1.0048,-0.0184,0.1031,0.0611
5634,-0.1105,0.0173,-1.0053,-0.1558,0.1184,0.0001
5644,-0.1110,0.0165,-0.9985,-0.2932,0.2253,-0.0457
5654,-0.1093,0.0153,-1.0002,-0.3085,0.2100,0.0459
5664,-0.1174,0.0168,-1.0009,-0.2321,0.0726,0.0001
5674,-0.1112,0.0090,-1.0038,-0.0795,-0.0037,0.0153
5684,-0.1083,0.0158,-1.0062,0.0732,-0.0190,0.0306
5694,-0.1161,0.0195,-1.0082,0.1648,0.0573,0.0306
5704,-0.1098,0.0114,-0.9898,-0.1711,0.2711,0.1985
5714,-0.1039,0.0153,-1.0024,-0.0795,0.3321,0.2138
5724,-0.1115,0.0163,-0.9995,-0.0184,0.3016,0.1680
5734,-0.1093,0.0204,-1.0123,-0.0947,0.2100,0.1375
5744,-0.1095,0.0124,-0.9956,-0.2779,-0.0953,0.0917
5754,-0.1132,0.0116,-0.9992,-0.2779,-0.0190,0.1069
5764,-0.1098,0.0190,-1.0111,-0.2474,-0.0190,0.0459
5774,-0.1142,0.0131,-0.9975,-0.1558,0.0573,0.0611
5784,-0.1122,0.0136,-1.0016,-0.0947,0.0115,0.0764
5794,-0.1154,0.0153,-0.9970,0.0732,-0.2175,0.0459
5804,-0.1117,0.0177,-1.0014,0.2411,-0.4770,0.0917
5814,-0.1088,0.0119,-1.0077,0.2564,-0.5686,0.0459
5824,-0.1088,0.0160,-1.0033,0.1343,-0.5534,-0.0152
5834,-0.1078,0.0160,-1.0057,0.0885,-0.4465,-0.0457
5844,-0.1108,0.0170,-0.9864,0.0579,-0.2327,-0.0152
5854,-0.1103,0.0131,-1.0048,0.2564,-0.1717,-0.0152
5864,-0.1117,0.0190,-0.9965,0.3633,-0.0495,0.0611
5874,-0.1090,0.0138,-1.0021,0.4702,-0.0037,0.0153
5884,-0.1154,0.0153,-1.0050,0.6686,-0.1411,0.0611
5894,-0.1161,0.0129,-0.9946,0.7297,-0.1869,0.0459
5904,-0.1081,0.0212,-0.9936,0.7755,-0.1717,0.0764
5914,-0.1169,0.0163,-1.0014,0.7602,-0.0190,-0.0152
5924,-0.1081,0.0116,-0.9980,0.6381,-0.0037,-0.0457
5934,-0.1105,0.0143,-1.0065,0.4702,0.0573,0.0001
5944,-0.1127,0.0090,-0.9973,0.2411,0.0879,-0.0915
5954,-0.1061,0.0092,-0.9982,0.3022,-0.2175,0.0001
5964,-0.1149,0.0124,-1.0031,0.2411,-0.4007,-0.0152
5974,-0.1041,0.0151,-0.9876,-0.0642,-0.2327,0.0764
5984,-0.1085,0.0131,-1.0019,0.1648,-0.1564,0.0459
5994,-0.1152,0.0124,-0.9912,0.0427,-0.1106,-0.1373
6004,-0.1105,0.0126,-0.9958,0.1037,0.0115,-0.1068
6014,-0.1142,0.0124,-1.0004,0.0732,0.0268,-0.0610
6024,-0.1112,0.0119,-0.9975,0.2869,-0.0190,0.0306
6034,-0.1117,0.0134,-1.0031,0.5007,-0.0343,0.0306
6044,-0.1169,0.0148,-1.0011,0.7602,-0.0037,0.0611
6054,-0.1135,0.0165,-1.0135,0.6381,-0.0190,0.0306
6064,-0.1117,0.0082,-0.9973,0.3938,0.0726,0.0611
6074,-0.1093,0.0175,-1.0077,0.1495,0.1184,0.1833
6084,-0.1135,0.0102,-0.9990,-0.1863,0.1184,0.0917
6094,-0.1085,0.0168,-1.0031,-0.3237,0.0115,0.0459
6104,-0.1061,0.0109,-0.9932,-0.2627,0.1184,0.0153
6114,-0.1061,0.0177,-1.0060,0.0732,0.1031,-0.0915
6124,-0.1130,0.0173,-1.0045,0.4091,0.1489,-0.1679
6134,-0.1029,0.0173,-1.0062,0.3785,0.0421,-0.1984
6144,-0.1071,0.0158,-1.0038,0.3175,0.0115,-0.2595
6154,-0.1081,0.0131,-1.0009,0.1343,-0.1259,-0.2900
6164,-0.1073,0.0094,-1.0016,-0.1253,-0.2175,-0.2289
6174,-0.1098,0.0138,-0.9975,-0.0642,-0.2938,-0.2747
6184,-0.1110,0.0094,-0.9992,0.1495,-0.1869,-0.2442
6194,-0.1164,0.0141,-1.0103,0.3480,-0.0190,-0.1221
6204,-0.1137,0.0136,-0.9978,0.3327,-0.0648,-0.0305
6214,-0.1063,0.0124,-1.0014,0.3175,-0.0037,0.0611
6224,-0.1063,0.0148,-1.0038,0.2106,-0.0953,-0.1068
6234,-0.1058,0.0160,-1.0099,0.0732,-0.1411,-0.2137
6244,-0.1117,0.0195,-0.9924,-0.1405,-0.1411,-0.1373
6254,-0.1147,0.0138,-1.0007,0.0121,-0.0190,-0.0915
6264,-0.1142,0.0143,-0.9992,-0.0031,0.0268,-0.1526
6274,-0.1117,0.0136,-0.9992,-0.0031,-0.0495,-0.0763
6284,-0.1139,0.0097,-0.9980,0.1343,-0.0190,-0.0610
6294,-0.1164,0.0102,-0.9941,0.0885,-0.0190,-0.1984
6304,-0.1093,0.0153,-1.0033,0.1343,-0.0495,-0.2442
6314,-0.1122,0.0177,-1.0055,0.1801,-0.0037,-0.2900
6324,-0.1093,0.0131,-1.0065,0.0274,0.1795,-0.2289
6334,-0.1117,0.0121,-1.0074,-0.0031,0.2711,-0.2747
6344,-0.1125,0.0097,-1.0091,-0.0337,0.0726,-0.1526
6354,-0.1115,0.0065,-1.0060,-0.1405,-0.2175,-0.0915
6364,-0.1147,0.0136,-1.0026,-0.1253,-0.3854,-0.0152
6374,-0.1103,0.0080,-0.9973,-0.0947,-0.3702,0.0917
6384,-0.1103,0.0138,-0.9970,0.0427,-0.2480,0.0153
6394,-0.1147,0.0102,-1.0065,0.0579,-0.1564,0.0611
6404,-0.1152,0.0119,-0.9990,0.0121,-0.1717,0.0153
6414,-0.1095,0.0141,-1.0004,-0.0031,-0.3091,0.0306
6424,-0.1122,0.0107,-1.0055,0.0121,-0.4770,-0.0305
6434,-0.1095,0.0124,-1.0040,-0.0031,-0.6144,0.0001
6444,-0.1179,0.0185,-1.0040,0.0427,-0.7518,-0.1373
6454,-0.1115,0.0107,-0.9985,0.0274,-0.6297,-0.0305
6464,-0.1083,0.0141,-0.9997,-0.1100,-0.4007,-0.1373
6474,-0.1159,0.0143,-1.0043,-0.1558,-0.0495,-0.0763
6484,-0.1139,0.0143,-0.9927,-0.2016,0.1489,-0.1526
6494,-0.1157,0.0134,-1.0009,-0.2627,0.2405,-0.1679
6504,-0.1135,0.0119,-0.9965,-0.1863,0.2405,-0.0763
6514,-0.1095,0.0148,-0.9992,0.0885,0.2253,-0.1373
6524,-0.1130,0.0141,-1.0053,0.2106,0.1031,-0.2289
6534,-0.1152,0.0107,-1.0016,0.1037,-0.1411,-0.2595
6544,-0.1132,0.0114,-1.0014,-0.2016,-0.0801,-0.1831
6554,-0.1184,0.0119,-0.9982,-0.2627,-0.0343,-0.0610
6564,-0.1130,0.0107,-0.9958,-0.2627,0.1031,0.0306
6574,-0.1110,0.0121,-1.0026,-0.0184,0.1642,0.0917
6584,-0.1073,0.0187,-1.0040,0.3633,0.1489,0.1375
6594,-0.1093,0.0160,-1.0050,0.5160,0.0268,0.1833
6604,-0.1083,0.0182,-1.0050,0.3633,-0.0495,0.1069
6614,-0.1083,0.0080,-1.0113,0.1648,0.0421,0.0611
6624,-0.1135,0.0168,-1.0033,-0.1405,0.1947,-0.0152
6634,-0.1115,0.0136,-0.9980,-0.3543,0.2253,-0.1373
6644,-0.1154,0.0121,-0.9963,-0.2169,0.2100,-0.1526
6654,-0.1157,0.0170,-1.0173,0.3022,-0.0037,-0.0610
6664,-0.1169,0.0114,-1.0007,0.3938,-0.0801,0.0306
6674,-0.1120,0.0126,-0.9963,0.4549,-0.2175,0.1375
6684,-0.1112,0.0077,-1.0016,0.4702,-0.0343,0.1069
6694,-0.1090,0.0141,-1.0040,0.2564,0.0573,0.0917
6704,-0.1125,0.0068,-1.0069,-0.0031,0.1184,-0.0915
6714,-0.1139,0.0102,-0.9995,-0.3543,0.1337,-0.1068
6724,-0.1135,0.0055,-1.0050,-0.4306,0.0421,-0.0305
6734,-0.1149,0.0126,-0.9924,-0.4153,-0.0190,0.0153
6744,-0.1130,0.0099,-0.9987,-0.2321,0.0573,0.1375
6754,-0.1127,0.0060,-1.0019,-0.1558,0.0421,0.1375
6764,-0.1149,0.0158,-1.0007,-0.1711,0.1337,0.0917
6774,-0.1122,0.0109,-1.0036,-0.1711,0.1947,0.0153
6784,-0.1161,0.0136,-1.0007,-0.2627,0.1184,-0.0610
6794,-0.1139,0.0109,-0.9965,-0.2321,-0.0343,0.0459
6804,-0.1174,0.0124,-1.0014,-0.2474,-0.0648,-0.0305
6814,-0.1139,0.0148,-1.0069,-0.2779,-0.1717,0.0001
6824,-0.1110,0.0151,-0.9990,-0.3085,-0.1564,-0.0610
6834,-0.1157,0.0102,-1.0028,-0.3390,0.0726,-0.0763
6844,-0.1122,0.0092,-0.9992,-0.4001,0.1031,0.0001
6854,-0.1117,0.0129,-1.0014,-0.4153,0.0115,0.0306
6864,-0.1152,0.0173,-1.0009,-0.2932,0.0421,0.1527
6874,-0.1130,0.0163,-1.0014,-0.2016,0.1947,0.1680
6884,-0.1110,0.0151,-0.9987,-0.1558,0.2558,0.1680
6894,-0.1135,0.0077,-1.0043,-0.0184,0.2863,0.1222
6904,-0.1112,0.0126,-1.0019,-0.1558,0.2405,0.1069
6914,-0.1110,0.0116,-1.0038,-0.1711,-0.0037,0.1375
6924,-0.1105,0.0114,-1.0009,-0.4306,-0.0495,0.0764
6934,-0.1157,0.0124,-0.9985,-0.5985,-0.0343,0.0459
6944,-0.1112,0.0136,-0.9973,-0.5222,0.0573,0.0306
6954,-0.1093,0.0197,-0.9953,-0.3695,0.0115,0.1069
6964,-0.1135,0.0148,-1.0016,-0.0489,-0.0953,-0.0610
6974,-0.1169,0.0124,-1.0048,0.1037,-0.2327,-0.1221
6984,-0.1112,0.0146,-1.0031,0.1801,-0.3091,-0.1679
6994,-0.1137,0.0160,-1.0074,0.1648,-0.3854,-0.1373
7004,-0.1090,0.0182,-0.9985,-0.0642,-0.2480,-0.0152
7014,-0.1137,0.0143,-1.0026,-0.1100,0.0573,-0.0610
7024,-0.1135,0.0151,-0.9990,-0.0489,0.1642,-0.0610
7034,-0.1161,0.0092,-1.0021,-0.0489,0.2100,0.0306
7044,-0.1112,0.0160,-1.0055,0.0274,0.1642,0.0153
7054,-0.1122,0.0143,-1.0014,0.0274,0.1642,0.0306
7064,-0.1117,0.0155,-1.0036,0.0427,0.1795,0.1375
7074,-0.1073,0.0182,-1.0065,0.0732,0.3016,0.0459
7084,-0.1054,0.0148,-0.9987,0.0885,0.2558,0.1527
7094,-0.1161,0.0109,-1.0014,0.1495,0.2253,0.0459
7104,-0.1115,0.0148,-1.0045,0.1495,0.0726,0.0917
7114,-0.1108,0.0116,-0.9982,0.1343,-0.0495,0.1680
7124,-0.1120,0.0143,-1.0048,0.3022,-0.1259,0.3054
7134,-0.1085,0.0151,-0.9999,0.3785,-0.1411,0.3054
7144,-0.1108,0.0114,-1.0060,0.3327,-0.0953,0.2902
7154,-0.1132,0.0090,-1.0067,0.1190,0.1795,0.1222
7164,-0.1127,0.0109,-1.0024,-0.1405,0.1642,-0.0763
7174,-0.1073,0.0090,-0.9985,-0.3085,0.1184,-0.0610
7184,-0.1108,0.0155,-1.0019,-0.2779,-0.0190,-0.1068
7194,-0.1171,0.0124,-1.0021,-0.2321,-0.0801,0.0001
7204,-0.1117,0.0114,-1.0038,-0.0337,-0.1564,-0.0457
7214,-0.1117,0.0153,-0.9992,0.1801,-0.1259,0.0459
7224,-0.1164,0.0114,-0.9990,0.3327,-0.1564,-0.0152
7234,-0.1144,0.0124,-1.0007,0.3938,-0.0801,0.0917
7244,-0.1130,0.0073,-0.9999,0.3022,0.1337,0.0611
7254,-0.1135,0.0112,-1.0089,0.2869,0.3016,-0.0610
7264,-0.1110,0.0099,-1.0033,0.2869,0.3932,0.0611
7274,-0.1122,0.0116,-1.0019,0.3633,0.4085,0.0611
7284,-0.1161,0.0121,-1.0024,0.3022,0.4543,0.0153
7294,-0.1122,0.0136,-1.0050,0.2869,0.3474,0.0459
7304,-0.1090,0.0121,-0.9975,0.1495,0.2863,0.1069
7314,-0.1117,0.0153,-1.0014,0.3022,0.1031,0.1069
7324,-0.1110,0.0143,-1.0033,0.4549,-0.0190,0.0153
7334,-0.1093,0.0141,-1.0036,0.5160,0.0726,0.0153
7344,-0.1135,0.0099,-0.9956,0.6076,0.1489,0.0459
7354,-0.1098,0.0146,-0.9973,0.8060,0.1489,-0.0305
7364,-0.1098,0.0134,-1.0007,1.0961,-0.0648,-0.1221
7374,-0.1095,0.0146,-1.0028,1.1266,-0.2022,-0.1831
7384,-0.1127,0.0143,-1.0113,1.0198,-0.2633,-0.2137
7394,-0.1117,0.0109,-1.0024,0.7450,-0.2785,-0.1831
7404,-0.1093,0.0055,-1.0004,0.1495,-0.3244,-0.0763
7414,-0.1127,0.0060,-1.0060,-0.2779,-0.3549,-0.0915
7424,-0.1193,0.0087,-0.9970,-0.3695,-0.2327,-0.1831
7434,-0.1130,0.0075,-0.9970,-0.3390,-0.1411,-0.0763
7444,-0.1171,0.0073,-1.0053,-0.2321,-0.0495,-0.0305
7454,-0.1110,0.0094,-1.0033,-0.1558,0.1489,-0.0457
7464,-0.1095,0.0094,-1.0060,-0.1711,0.3169,0.0306
7474,-0.1083,0.0168,-1.0014,-0.1863,0.2253,0.0611
7484,-0.1161,0.0116,-0.9987,-0.4153,0.1184,0.0306
7494,-0.1100,0.0131,-1.0118,-0.6138,0.0879,0.1222
7504,-0.1161,0.0090,-0.9929,-0.5833,0.1489,0.0917
7514,-0.1108,0.0170,-1.0045,-0.3085,0.2405,0.0917
7524,-0.1076,0.0068,-0.9992,0.0121,0.3474,-0.1679
7534,-0.0985,0.0173,-0.9900,0.0732,0.3016,-0.0610
7544,-0.1238,0.0170,-1.0120,0.3175,0.3321,-0.2900
7554,-0.1024,0.0109,-0.9973,0.0579,0.4237,-0.2289
7564,-0.1073,0.0195,-0.9985,-0.0031,0.3321,-0.1373
7574,-0.1071,0.0058,-0.9946,0.1495,0.2863,-0.1831
7584,-0.1112,0.0146,-0.9905,0.2411,0.0726,-0.1984
7594,-0.1135,0.0073,-1.0084,0.5007,-0.3244,-0.2289
7604,-0.1034,0.0131,-0.9975,0.7602,-0.5381,-0.1679
7614,-0.1110,0.0112,-0.9992,0.8824,-0.6450,-0.2289
7624,-0.1122,0.0109,-1.0002,0.9434,-0.4770,-0.3358
7634,-0.1125,0.0073,-0.9965,0.7602,-0.2938,-0.2442
7644,-0.1242,0.0119,-1.0043,0.6686,-0.3244,-0.2442
7654,-0.1137,0.0073,-0.9990,0.5770,-0.3702,-0.1221
7664,-0.1046,0.0124,-0.9936,0.3785,-0.5076,-0.1221
7674,-0.1073,0.0126,-0.9992,0.4091,-0.6450,-0.1831
7684,-0.1100,0.0119,-0.9997,0.5160,-0.6755,-0.2747
7694,-0.1098,0.0129,-0.9992,0.5312,-0.5534,-0.5037
7704,-0.1039,0.0207,-1.0050,0.5160,-0.4312,-0.8091
7714,-0.1135,0.0126,-1.0021,0.5160,-0.3396,-1.1602
7724,-0.0970,-0.0013,-0.9508,0.7450,-0.1869,-1.2976
7734,-0.1336,-0.0025,-1.0314,0.7908,-0.0190,-1.3434
7744,-0.1304,0.0077,-0.9929,-0.5833,1.0802,-0.0457
7754,-0.1507,-0.0152,-1.0616,-0.9344,0.9581,0.2596
7764,-0.1039,-0.0328,-0.9627,-4.0642,2.2405,2.6260
7774,-0.0767,0.1088,-0.9494,-4.2779,1.9352,2.6108
7784,-0.1127,-0.0447,-0.9963,-1.7589,-0.2022,0.6871
7794,-0.0838,0.0563,-0.9917,-1.1787,-0.2327,0.6718
7804,-0.1046,0.0107,-1.0007,-0.0947,-0.7060,0.0001
7814,-0.0990,0.0219,-0.9893,0.5160,-0.6908,-0.1984
7824,-0.0791,0.0248,-0.9806,1.1114,-0.5839,-0.1526
7834,-0.1206,0.0119,-1.0028,1.9663,-0.8129,-0.7785
7844,-0.1117,0.0060,-1.0002,2.0732,-0.6908,-0.6869
7854,-0.1122,0.0131,-1.0106,2.0427,-0.4770,-0.4427
7864,-0.1103,0.0007,-1.0055,1.5236,-0.2480,-0.2900
7874,-0.1100,0.0090,-0.9697,1.3251,-0.1106,-0.3358
7884,-0.1132,0.0065,-0.9963,1.1419,-0.0343,-0.3969
7894,-0.1230,0.0051,-1.0014,1.1114,-0.0495,-0.1679
7904,-0.1176,0.0048,-1.0016,1.0503,-0.0037,-0.0152
7914,-0.1213,-0.0008,-1.0033,1.2182,-0.0953,0.1833
7924,-0.1110,0.0043,-1.0040,1.0503,0.0421,0.3512
7934,-0.1159,0.0031,-1.0118,0.7755,0.2558,0.2138
7944,-0.1122,0.0065,-1.0111,0.2869,0.3627,0.2749
7954,-0.1078,0.0136,-1.0043,-0.2169,0.6069,0.3207
7964,-0.1073,0.0134,-1.0045,-0.6291,0.6069,0.1680
7974,-0.1083,0.0092,-1.0014,-0.9039,0.6222,0.1375
7984,-0.1105,0.0168,-0.9944,-1.0108,0.5153,0.0306
7994,-0.1090,0.0124,-0.9920,-0.4611,0.3016,0.0153
8004,-0.1044,0.0107,-0.9924,0.1343,-0.0037,-0.0610
8014,-0.1068,0.0058,-1.0007,0.8060,-0.2327,-0.2137
8024,-0.1132,0.0104,-1.0128,0.8976,-0.3549,-0.3816
8034,-0.1066,0.0087,-1.0043,0.6992,-0.4618,-0.3969
8044,-0.1193,0.0031,-1.0130,0.4244,-0.5992,-0.3969
8054,-0.1147,0.0102,-0.9968,0.0579,-0.5381,-0.0763
8064,-0.1149,0.0080,-0.9975,-0.0489,-0.6144,0.0459
8074,-0.1093,0.0124,-0.9883,0.1648,-0.4160,0.1069
8084,-0.1179,0.0051,-1.0053,0.7602,-0.5686,0.1222
8094,-0.1144,0.0087,-1.0125,1.3556,-0.6755,0.0917
8104,-0.1112,0.0070,-1.0079,1.4015,-0.6450,0.0764
8114,-0.1169,0.0068,-1.0101,1.1572,-0.6144,0.0153
8124,-0.1184,0.0011,-1.0086,0.5007,-0.3854,0.0153
8134,-0.1122,0.0060,-1.0089,-0.4306,0.1337,0.2291
8144,-0.1108,0.0104,-1.0016,-1.0108,0.3016,0.1833
8154,-0.1090,0.0129,-1.0004,-0.9955,0.4085,0.1985
8164,-0.1122,0.0160,-0.9997,-0.6749,0.3627,0.0917
8174,-0.1093,0.0138,-0.9927,-0.2169,0.3169,0.1680
8184,-0.1103,0.0146,-0.9997,0.3175,0.3321,0.1222
8194,-0.1098,0.0094,-1.0038,0.3633,0.2863,0.0764
8204,-0.1125,0.0112,-1.0040,0.3175,0.2253,-0.0305
8214,-0.1198,0.0033,-0.9995,0.1801,0.0879,-0.1068
8224,-0.1132,0.0090,-1.0055,0.1037,0.0421,0.0306
8234,-0.1127,0.0058,-1.0007,0.2564,-0.1869,0.0917
8244,-0.1149,0.0033,-0.9992,0.2411,-0.2785,0.2749
8254,-0.1073,0.0097,-0.9956,0.4244,-0.3244,0.5039
8264,-0.1078,0.0024,-1.0016,0.5465,-0.1564,0.4428
8274,-0.1093,0.0104,-1.0062,0.5923,-0.0495,0.3360
8284,-0.1154,0.0082,-0.9941,0.5923,-0.1106,0.1680
8294,-0.1110,0.0092,-1.0086,0.4702,-0.1717,0.0917
8304,-0.1125,0.0053,-1.0048,0.0579,-0.0495,-0.0152
8314,-0.1135,0.0104,-1.0007,-0.1405,-0.2175,0.0306
8324,-0.1144,0.0126,-1.0024,-0.0031,-0.3244,0.0459
8334,-0.1135,0.0138,-1.0096,0.0274,-0.2480,-0.0763
8344,-0.1115,0.0033,-1.0026,0.0121,-0.1869,0.0153
8354,-0.1137,0.0087,-1.0033,-0.0184,-0.0801,-0.0152
8364,-0.1176,0.0051,-1.0050,-0.0489,0.1642,-0.0763
8374,-0.1159,0.0055,-0.9963,-0.0031,0.1642,-0.0305
8384,-0.1130,0.0060,-1.0045,0.1495,0.1489,0.0459
8394,-0.1169,0.0063,-1.0103,0.2869,0.1642,-0.0915
8404,-0.1081,0.0068,-1.0079,-0.0184,0.3169,-0.0152
8414,-0.1100,0.0043,-1.0004,-0.3543,0.5001,-0.0457
8424,-0.1135,0.0112,-1.0019,-0.4611,0.5459,0.0153
8434,-0.1164,0.0126,-1.0057,-0.4764,0.5153,-0.0457
8444,-0.1149,0.0070,-0.9963,-0.3085,0.2863,0.1069
8454,-0.1159,0.0107,-0.9963,-0.1405,0.1642,0.0001
8464,-0.1066,0.0060,-0.9975,0.0885,0.0421,0.0764
8474,-0.1149,0.0116,-1.0031,0.2106,-0.1259,-0.1373
8484,-0.1098,0.0124,-0.9997,0.1343,-0.2175,-0.1831
8494,-0.1152,0.0060,-0.9973,-0.1100,-0.1106,-0.2137
8504,-0.1132,0.0109,-1.0048,-0.0947,-0.0648,-0.2137
8514,-0.1132,0.0046,-0.9936,-0.2321,-0.0801,-0.0763
8524,-0.1112,0.0063,-0.9922,-0.1405,-0.0953,0.1069
8534,-0.1100,0.0087,-0.9934,0.1343,-0.1411,0.0153
8544,-0.1137,0.0073,-0.9965,0.2869,-0.1869,-0.1526
8554,-0.1149,0.0075,-0.9958,0.2259,0.0573,-0.2442
8564,-0.1203,0.0068,-1.0149,0.1801,0.2711,-0.4274
8574,-0.1139,0.0007,-0.9956,-0.0337,0.4085,-0.3969
8584,-0.1169,0.0016,-1.0019,-0.5069,0.7291,-0.1373
8594,-0.1120,0.0216,-1.0091,-0.4611,0.7138,0.0153
8604,-0.1081,-0.0074,-0.9888,-0.2627,0.5459,0.0917
8614,-0.1076,0.0180,-1.0050,-0.0184,0.3474,0.2138
8624,-0.1127,-0.0006,-0.9927,0.0274,0.1642,0.2902
8634,-0.1132,0.0058,-1.0115,-0.1711,0.2100,0.2291
8644,-0.1022,0.0024,-1.0089,-0.4153,0.1947,0.2902
8654,-0.1088,-0.0023,-0.9915,-0.9497,0.0879,0.3054
8664,-0.1100,0.0146,-1.0014,-1.1482,0.0421,0.4734
8674,-0.1103,0.0041,-1.0028,-1.1940,0.0726,0.4734
8684,-0.1000,0.0097,-0.9965,-0.9955,0.0726,0.3360
8694,-0.1078,0.0143,-0.9995,-0.6902,0.1489,0.2749
8704,-0.1081,0.0129,-0.9903,-0.2474,0.0879,0.0611
8714,-0.1147,0.0131,-1.0106,0.2259,0.0573,-0.1068
8724,-0.1122,0.0060,-1.0033,0.3480,0.0573,-0.2900
8734,-0.1171,0.0146,-1.0115,0.2869,-0.1869,-0.3358
8744,-0.1211,0.0041,-1.0072,0.2411,-0.4160,-0.5037
8754,-0.1147,0.0031,-0.9999,0.1037,-0.2480,-0.3358
8764,-0.1041,0.0238,-1.0009,0.1495,-0.1717,-0.1068
8774,-0.1215,0.0016,-1.0007,0.1037,-0.2785,-0.1831
8784,-0.1179,0.0126,-0.9995,0.3022,-0.2633,-0.1373
8794,-0.1191,0.0109,-1.0115,0.4854,-0.3549,-0.2137
8804,-0.1117,-0.0023,-1.0016,0.4702,-0.2938,0.0153
8814,-0.1166,0.0063,-1.0057,0.1343,-0.1259,0.0611
8824,-0.1188,-0.0020,-1.0084,-0.2169,0.0115,0.0764
8834,-0.1137,-0.0015,-1.0007,-0.3237,0.0879,0.1985
8844,-0.1132,0.0036,-1.0060,-0.4306,-0.0495,0.2749
8854,-0.1054,0.0107,-1.0028,-0.2779,-0.0037,0.4123
8864,-0.1193,0.0141,-0.9946,-0.1405,0.2711,0.3360
8874,-0.1027,0.0141,-0.9953,-0.0642,0.5917,0.3970
8884,-0.1081,0.0048,-0.9997,-0.2016,0.7902,0.2902
8894,-0.1108,0.0155,-1.0130,-0.4001,0.8512,0.3054
8904,-0.1225,0.0104,-1.0077,-0.6291,0.6833,0.1375
8914,-0.1127,0.0102,-1.0176,-0.9802,0.4237,0.2596
8924,-0.1105,0.0141,-1.0016,-1.1024,0.2711,0.3360
8934,-0.1112,0.0114,-1.0113,-0.8428,0.2405,0.4123
8944,-0.1130,0.0114,-1.0004,-0.7207,0.3169,0.3818
8954,-0.1112,0.0151,-1.0040,-0.6138,0.3474,0.3512
8964,-0.1073,0.0131,-1.0084,-0.6902,0.3627,0.1527
8974,-0.1036,0.0121,-0.9939,-0.7512,0.2711,0.0611
8984,-0.1169,0.0092,-1.0011,-0.6444,0.1337,-0.1068
8994,-0.1139,0.0114,-1.0074,-0.4611,0.0421,-0.1679
9004,-0.1095,0.0077,-1.0002,-0.4153,0.0421,-0.1679
9014,-0.1135,0.0063,-0.9980,-0.2016,0.0268,-0.1526
9024,-0.1103,0.0077,-1.0004,-0.0795,0.0573,0.0153
9034,-0.1122,0.0097,-1.0004,-0.0795,0.1337,0.1222
9044,-0.1110,0.0141,-1.0055,-0.0337,-0.0343,0.1375
9054,-0.1142,0.0094,-1.0007,-0.0031,-0.3854,0.1680
9064,-0.1071,0.0129,-1.0045,-0.2779,-0.5381,0.1833
9074,-0.1088,0.0114,-0.9992,-0.2474,-0.4770,0.0611
9084,-0.1110,0.0102,-1.0028,-0.4306,-0.4465,-0.0610
9094,-0.1130,0.0109,-1.0040,-0.4611,-0.1564,-0.0152
9104,-0.1081,0.0075,-1.0045,-0.5069,-0.0190,-0.0152
9114,-0.1110,0.0131,-1.0016,-0.3390,0.0573,-0.0152
9124,-0.1088,0.0109,-1.0009,-0.0795,0.0421,-0.0305
9134,-0.1112,0.0134,-1.0026,0.1953,0.0573,-0.1526
9144,-0.1125,0.0121,-1.0055,0.3327,0.0115,-0.1221
9154,-0.1095,0.0136,-1.0091,0.3480,-0.0343,-0.2137
9164,-0.1149,0.0146,-1.0048,0.2869,-0.1259,-0.3663
9174,-0.1132,0.0021,-1.0024,0.1953,-0.2022,-0.4732
9184,-0.1093,0.0114,-1.0014,0.0427,-0.2480,-0.3053
9194,-0.1105,-0.0006,-0.9987,-0.0795,-0.1106,-0.3053
9204,-0.1144,0.0036,-1.0031,-0.0184,-0.2480,-0.2137
9214,-0.1125,0.0080,-1.0016,0.0274,-0.3244,-0.1221
9224,-0.1110,0.0134,-1.0045,0.1648,-0.5076,-0.0610
9234,-0.1108,0.0131,-1.0055,0.2106,-0.5839,-0.1068
9244,-0.1144,0.0121,-1.0040,0.2259,-0.5992,-0.0763
9254,-0.1071,0.0126,-1.0011,0.1037,-0.5076,-0.1526
9264,-0.1093,-0.0001,-0.9965,0.0274,-0.3702,-0.1831
9274,-0.1193,0.0124,-1.0011,0.1190,-0.4312,-0.1984
9284,-0.1164,0.0051,-1.0062,0.4091,-0.4160,-0.1221
9294,-0.1100,0.0165,-0.9953,0.4702,-0.3549,-0.0610
9304,-0.1127,0.0031,-0.9999,0.7297,-0.5076,-0.0152
9314,-0.1093,0.0199,-1.0065,0.7144,-0.5381,-0.0610
9324,-0.1115,0.0007,-0.9973,0.5923,-0.5686,-0.1984
9334,-0.1181,0.0085,-1.0057,0.2869,-0.3396,-0.1679
9344,-0.1230,0.0060,-1.0178,0.0121,-0.2785,-0.0915
9354,-0.1093,0.0099,-0.9944,-0.1711,-0.2785,-0.0610
9364,-0.1110,0.0026,-0.9985,-0.0947,-0.3396,0.0459
9374,-0.1360,0.0131,-1.0099,0.0427,-0.1411,0.1375
9384,-0.1211,0.0033,-1.0048,0.1190,-0.0343,0.1375
9394,-0.1191,0.0119,-0.9978,0.2106,0.0573,0.0001
9404,-0.1137,0.0126,-1.0069,0.4549,0.3321,0.3360
9414,-0.1127,0.0114,-1.0062,0.3175,0.3779,0.2596
9424,-0.1161,0.0082,-0.9995,0.0274,0.3779,0.2749
9434,-0.1193,0.0051,-1.0033,0.0427,0.2405,0.2902
9444,-0.1228,0.0014,-1.0072,0.0732,-0.0648,0.3360
9454,-0.1125,0.0058,-1.0067,-0.1405,-0.3854,0.8550
9464,-0.1154,0.0141,-1.0007,-0.2016,-0.6297,1.1451
9474,-0.1049,0.0082,-1.0007,-0.0795,-0.6602,1.1298
9484,-0.1100,0.0102,-0.9978,0.0121,-0.6908,0.8092
9494,-0.1132,0.0041,-1.0016,0.2869,-0.7824,0.5039
9504,-0.1039,0.0075,-0.9982,0.4244,-0.7518,0.4734
9514,-0.0897,0.0204,-0.9987,0.6381,-0.7518,0.1680
9524,-0.1240,0.0041,-0.9939,1.5236,-0.9350,-0.7785
9534,-0.1161,0.0124,-1.0057,1.7068,-0.8129,-0.3816
9544,-0.1081,0.0114,-1.0077,1.0808,-0.5381,-0.1221
9554,-0.1054,0.0121,-1.0043,0.3327,-0.2633,-0.3816
9564,-0.1125,0.0143,-0.9965,-0.0031,-0.2022,-0.6106
9574,-0.1068,0.0112,-0.9958,0.1648,-0.0190,-0.7785
9584,-0.1076,0.0143,-1.0040,0.5312,-0.1259,-1.0381
9594,-0.1314,0.0099,-1.0135,0.8060,0.0726,-1.2366
9604,-0.1287,0.0007,-1.0128,0.2106,0.3169,-0.7022
9614,-0.1144,0.0033,-1.0043,-0.6749,0.3474,-0.0305
9624,-0.1218,0.0055,-1.0040,-1.0260,0.0726,0.2138
9634,-0.1095,0.0102,-1.0038,-1.2550,-0.0190,0.5802
9644,-0.1130,0.0065,-1.0026,-1.2703,-0.2022,0.6718
9654,-0.1098,0.0134,-0.9997,-1.1176,-0.1106,0.5497
9664,-0.1066,0.0041,-0.9961,-0.9192,0.0573,0.2902
9674,-0.1063,0.0102,-0.9968,-0.5680,0.2405,0.0611
9684,-0.0995,0.0051,-0.9900,0.0579,0.1642,-0.4274
9694,-0.1181,0.0048,-0.9985,0.9282,-0.0801,-0.9312
9704,-0.1130,0.0070,-1.0057,1.4015,-0.1717,-0.9312
9714,-0.1181,-0.0006,-1.0159,1.6457,-0.4160,-0.9160
9724,-0.1215,0.0141,-1.0094,0.9740,-0.5228,-0.4885
9734,-0.1130,-0.0008,-1.0031,-0.0489,-0.5381,-0.0152
9744,-0.1066,0.0077,-1.0031,-0.6291,-0.4160,0.3818
9754,-0.1152,0.0121,-0.9975,-0.6138,-0.5228,0.5802
9764,-0.1132,0.0073,-1.0021,-0.5527,-0.3091,0.7176
9774,-0.1108,0.0134,-0.9828,-0.3390,-0.0190,0.8398
9784,-0.1203,0.0124,-1.0103,0.4091,0.0726,0.4734
9794,-0.1051,0.0121,-0.9854,0.6534,0.2558,0.1680
9804,-0.1198,0.0046,-1.0135,1.2946,0.2253,-0.3511
9814,-0.1242,0.0036,-1.0094,0.7450,0.4085,-0.1831
9824,-0.1100,0.0060,-1.0053,-0.2169,0.5306,0.3207
9834,-0.1049,0.0082,-1.0062,-0.4459,0.4543,0.4123
9844,-0.1169,0.0138,-0.9980,-0.5222,0.4390,0.2291
9854,-0.1044,0.0175,-0.9898,-0.5069,0.5001,0.3818
9864,-0.1007,0.0151,-1.0002,0.2106,0.3321,0.0153
9874,-0.1139,0.0021,-1.0038,1.0503,-0.0190,-0.5495
9884,-0.1171,0.0114,-1.0069,1.0808,-0.1259,-0.3205
9894,-0.1135,-0.0052,-0.9929,0.8213,-0.2480,-0.1526
9904,-0.1122,0.0043,-1.0007,1.1877,-0.4007,0.1069
9914,-0.1100,0.0019,-0.9936,1.5694,-0.6450,0.1985
9924,-0.1081,0.0221,-1.0019,1.7984,-0.6297,0.0611
9934,-0.1149,0.0021,-0.9939,1.5083,-0.5992,-0.2900
9944,-0.1120,0.0102,-1.0036,1.7373,-0.2327,-0.3663
9954,-0.1186,-0.0013,-1.0053,1.7831,0.1947,-0.3053
9964,-0.1215,0.0026,-0.9980,1.8442,0.4695,-0.1831
9974,-0.1144,-0.0008,-1.0053,1.8442,0.0726,-0.0305
9984,-0.1176,-0.0035,-1.0036,1.6763,-0.3702,-0.0152
9994,-0.1174,0.0043,-1.0040,1.1572,-0.4007,0.1985
10004,-0.1127,0.0048,-1.0026,0.5007,-0.2175,0.2902
10014,-0.1098,0.0036,-0.9922,-0.1253,0.0879,0.5039
10024,-0.1125,0.0141,-1.0067,-0.0031,0.1947,0.3054
10034,-0.1174,-0.0010,-1.0002,-0.1558,0.3016,0.2902
10044,-0.1105,0.0102,-1.0033,0.0121,0.2711,0.3360
10054,-0.1174,-0.0020,-1.0074,0.0427,-0.0343,0.2902
10064,-0.1152,-0.0030,-0.9878,-0.2016,-0.1106,0.6108
10074,-0.1031,0.0085,-1.0079,-0.4001,-0.2022,0.7024
10084,-0.1135,0.0080,-1.0055,-0.6596,0.0573,0.5802
10094,-0.1139,0.0048,-1.0055,-1.0871,0.5001,0.5650
10104,-0.1169,0.0092,-0.9939,-1.4688,0.8818,0.7634
10114,-0.1063,0.0131,-0.9944,-1.1940,0.8512,0.5802
10124,-0.0995,0.0060,-0.9910,-0.4917,0.4085,0.2749
10134,-0.1169,0.0094,-0.9757,0.5465,-0.3549,-0.6259
10144,-0.1196,-0.0057,-1.0026,0.9434,-0.6144,-1.0992
10154,-0.1225,0.0060,-1.0106,0.3022,-0.1259,-0.8396
10164,-0.1144,0.0041,-1.0091,-0.9955,0.4543,-0.2137
10174,-0.1115,0.0046,-1.0130,-1.8352,0.6680,0.0611
10184,-0.1125,0.0063,-1.0024,-2.4459,0.7902,0.2444
10194,-0.1127,0.0058,-0.9975,-2.6444,0.8665,0.1985
10204,-0.1063,0.0114,-0.9946,-2.1863,0.6680,-0.0457
10214,-0.1115,0.0073,-0.9958,-1.4230,0.5001,-0.4579
10224,-0.1135,0.0107,-1.0086,-1.2398,0.3779,-0.6259
10234,-0.1144,0.0055,-1.0038,-1.7131,0.5917,-0.5037
10244,-0.1157,0.0063,-1.0014,-2.0947,0.8207,-0.3663
10254,-0.1164,-0.0010,-0.9997,-2.1558,0.8512,-0.3663
10264,-0.1181,0.0087,-0.9978,-1.8199,0.9123,-0.2289
10274,-0.1132,0.0070,-0.9924,-1.3619,0.7291,-0.0457
10284,-0.1083,0.0094,-1.0009,-0.6444,-0.0343,-0.0610
10294,-0.1122,0.0036,-1.0038,-0.0947,-0.8587,0.1069
10304,-0.1071,0.0109,-0.9999,0.0579,-1.4847,0.2138
10314,-0.1100,0.0090,-1.0072,0.3022,-1.6831,0.1069
10324,-0.1166,0.0104,-1.0154,-0.2016,-1.6221,0.1222
10334,-0.1135,-0.0040,-0.9975,-1.2092,-1.2556,0.5650
10344,-0.1154,0.0085,-1.0045,-1.6062,-0.9350,0.7482
10354,-0.1108,0.0060,-0.9944,-1.6673,-0.6450,0.5497
10364,-0.1135,0.0112,-0.9973,-1.2856,-0.4465,0.3054
10374,-0.1063,0.0212,-0.9990,-0.8886,-0.1564,0.2291
10384,-0.1157,0.0146,-1.0065,-0.4764,0.1947,-0.0915
10394,-0.1152,0.0138,-1.0033,-0.5069,0.4848,-0.2289
10404,-0.1186,0.0099,-1.0077,-0.5680,0.4543,-0.4579
10414,-0.1257,0.0038,-0.9949,-0.5527,0.6222,-0.2595
10424,-0.1206,0.0114,-0.9941,-0.5527,0.6069,0.0306
10434,-0.1144,0.0109,-0.9910,-0.1405,0.4237,0.0764
10444,-0.1117,0.0102,-0.9985,0.2259,0.3627,-0.0152
10454,-0.1130,0.0114,-0.9975,0.5007,0.3932,-0.0763
10464,-0.1049,0.0143,-1.0072,0.7297,0.3932,-0.1526
10474,-0.1122,0.0043,-1.0045,0.2106,0.5764,-0.1984
10484,-0.1051,0.0148,-1.0135,-0.3695,0.6985,0.0459
10494,-0.1058,0.0070,-1.0043,-0.7054,0.2405,-0.1373
10504,-0.1142,0.0024,-1.0004,-0.7970,-0.0648,-0.2289
10514,-0.1112,0.0070,-1.0014,-0.6749,-0.2327,-0.0915
10524,-0.1108,0.0092,-0.9956,-0.2016,-0.2022,-0.3205
10534,-0.1103,0.0075,-1.0077,-0.0795,0.0268,-0.2900
10544,-0.1061,0.0192,-1.0062,-0.2016,0.1337,-0.3205
10554,-0.1179,0.0085,-1.0094,-0.3237,0.0879,-0.6564
10564,-0.1223,0.0090,-1.0026,-0.8123,0.1337,-0.3969
10574,-0.1120,0.0077,-0.9965,-1.1482,-0.0037,-0.0305
10584,-0.1196,0.0053,-1.0028,-1.1329,-0.3854,0.2291
10594,-0.1201,0.0151,-0.9995,-1.1482,-0.3702,0.3665
10604,-0.1171,0.0163,-0.9997,-1.0871,-0.2633,0.3207
10614,-0.1058,0.0160,-0.9980,-0.7054,0.1184,0.1985
10624,-0.1117,0.0148,-0.9978,-0.5680,0.4085,-0.2442
10634,-0.1110,0.0114,-1.0106,-0.6291,0.5764,-0.3358
10644,-0.1122,0.0102,-1.0016,-0.8428,0.5764,-0.3053
10654,-0.1110,0.0104,-1.0021,-1.0871,0.6375,-0.1373
10664,-0.1108,0.0141,-1.0014,-0.9497,0.7596,-0.0305
10674,-0.1149,0.0160,-0.9929,-0.5527,0.8207,0.0153
10684,-0.1071,0.0102,-1.0014,-0.1863,0.8360,-0.0915
10694,-0.1090,0.0138,-0.9968,0.0121,0.8970,-0.3053
10704,-0.1085,0.0129,-1.0084,0.2411,0.7444,-0.3358
10714,-0.1081,0.0126,-1.0050,0.1953,0.6375,-0.4732
10724,-0.1179,0.0080,-1.0014,-0.0642,0.5611,-0.4732
10734,-0.1132,0.0158,-1.0040,-0.2321,0.5153,-0.2289
10744,-0.1188,0.0055,-1.0067,-0.2779,0.4085,-0.0610
10754,-0.1088,0.0182,-0.9968,-0.4001,0.2253,0.1680
10764,-0.1112,0.0090,-1.0099,-0.1100,-0.1564,0.1222
10774,-0.1081,0.0126,-1.0050,-0.2474,-0.2785,-0.0152
10784,-0.1068,0.0151,-1.0086,-0.2627,-0.2480,-0.0763
10794,-0.1105,0.0158,-1.0101,-0.3390,-0.2327,-0.2442
10804,-0.1085,0.0141,-1.0057,-0.5375,-0.2175,-0.2289
10814,-0.1093,0.0126,-1.0040,-0.6291,-0.0495,-0.1831
10824,-0.1090,0.0112,-0.9999,-0.6291,0.1184,-0.0457
10834,-0.1090,0.0158,-0.9917,-0.4611,0.0573,-0.0457
10844,-0.1125,0.0136,-1.0096,-0.1405,-0.0343,0.0001
10854,-0.1184,0.0097,-1.0028,-0.0489,-0.0343,-0.0152
10864,-0.1132,0.0182,-0.9985,-0.1558,0.1184,0.0306
10874,-0.1115,0.0170,-1.0033,-0.2321,0.0879,0.2291
10884,-0.1144,0.0143,-1.0024,-0.4001,0.1337,0.3665
10894,-0.1081,0.0221,-1.0099,-0.4917,0.1031,0.5039
10904,-0.1066,0.0141,-1.0009,-0.2627,-0.0953,0.1833
10914,-0.1093,0.0141,-1.0101,-0.0337,-0.2022,-0.0610
10924,-0.1154,0.0107,-1.0055,-0.2779,-0.1106,-0.0763
10934,-0.1100,0.0136,-1.0067,-0.6749,0.2100,-0.0152
10944,-0.1103,0.0116,-1.0019,-0.9192,0.3016,0.1069
10954,-0.1103,0.0129,-0.9987,-1.0871,0.1947,0.2596
10964,-0.1041,0.0158,-0.9871,-0.9192,0.1031,0.4581
10974,-0.1056,0.0234,-1.0072,-0.1253,-0.1106,0.0611
10984,-0.1154,0.0114,-1.0053,0.3327,-0.2327,-0.1831
10994,-0.1105,0.0143,-1.0082,0.3633,-0.0495,-0.2442
11004,-0.1098,0.0082,-0.9965,0.1037,0.1642,-0.0305
11014,-0.1093,0.0151,-0.9975,0.0274,0.1795,0.0153
11024,-0.1171,0.0114,-1.0057,0.1648,0.1337,0.1375
11034,-0.1164,0.0114,-1.0016,0.1648,0.0268,0.2291
11044,-0.1171,0.0187,-1.0004,0.3785,0.1031,0.2902
11054,-0.1088,0.0158,-0.9990,0.4702,0.1795,0.3818
11064,-0.1054,0.0185,-0.9968,0.9129,0.1642,0.1680
11074,-0.1135,0.0165,-1.0053,1.2182,0.1031,0.0306
11084,-0.1137,0.0038,-1.0019,1.3404,0.2558,0.0153
11094,-0.1149,0.0107,-1.0048,1.3251,0.3779,0.2138
11104,-0.1108,0.0102,-1.0019,1.2946,0.4085,0.2749
11114,-0.1110,0.0073,-1.0079,1.0198,0.2711,0.2291
11124,-0.1135,0.0070,-1.0014,0.8366,0.1947,0.1527
11134,-0.1095,0.0058,-0.9985,0.5618,0.1184,0.1833
11144,-0.1081,0.0141,-1.0043,0.5007,0.0573,0.2138
11154,-0.1105,0.0153,-1.0016,0.4549,0.3321,0.0917
11164,-0.1159,0.0141,-1.0016,0.5007,0.7138,0.0611
11174,-0.1068,0.0124,-0.9941,0.5770,0.8665,0.1069
11184,-0.1130,0.0077,-0.9965,0.6839,0.7749,0.0306
11194,-0.1112,0.0102,-0.9953,0.9129,0.4848,-0.0610
11204,-0.1027,0.0155,-1.0031,1.2793,0.0573,-0.1221
11214,-0.1054,0.0134,-0.9965,1.5083,-0.3549,-0.5343
11224,-0.1171,0.0073,-1.0082,1.5694,-0.2480,-1.0076
11234,-0.1235,0.0116,-1.0198,0.5618,0.2711,-0.5953
11244,-0.1083,0.0041,-0.9939,-0.6444,0.5611,0.2138
11254,-0.1041,0.0090,-1.0084,-0.5222,0.2558,0.4428
11264,-0.1098,-0.0025,-0.9857,0.0732,-0.1717,0.5650
11274,-0.1029,0.0143,-0.9932,0.9740,-0.5992,0.9008
11284,-0.0982,0.0065,-0.9917,2.0121,-0.8892,0.5802
11294,-0.1024,0.0185,-1.0103,3.0503,-0.9961,-0.0915
11304,-0.1093,0.0085,-1.0045,2.9587,-0.6755,-0.5190
11314,-0.1083,0.0112,-1.0166,2.2717,-0.1411,-0.8396
11324,-0.1242,0.0051,-1.0203,0.9892,0.5153,-0.6717
11334,-0.1122,0.0099,-1.0096,-0.4611,0.8970,0.0001
11344,-0.1132,0.0063,-0.9985,-1.0108,0.6833,0.2138
11354,-0.1181,0.0053,-1.0045,-1.3314,0.3169,0.1833
11364,-0.1137,0.0087,-0.9978,-1.6520,0.2558,0.3360
11374,-0.1044,0.0121,-0.9987,-1.6367,0.2558,0.3512
11384,-0.1093,0.0085,-1.0026,-1.2092,0.2711,0.0153
11394,-0.1154,0.0094,-1.0055,-0.9497,0.4390,-0.0457
11404,-0.1078,0.0070,-0.9900,-0.5069,0.3627,0.1527
11414,-0.1076,0.0107,-0.9852,0.3938,-0.0495,0.1833
11424,-0.1056,0.0063,-0.9929,1.7526,-0.6144,0.0001
11434,-0.1132,0.0077,-1.0130,2.8213,-0.7213,-0.2137
11444,-0.1041,0.0116,-0.9949,3.0961,-0.5839,0.0001
11454,-0.0980,0.0160,-0.9980,3.7526,-0.5534,-0.2747
11464,-0.1157,0.0029,-1.0137,3.9511,-0.5076,-0.7327
11474,-0.1122,0.0068,-1.0108,3.4625,-0.3702,-0.6259
11484,-0.1144,0.0036,-1.0125,2.8060,-0.3854,-0.6564
11494,-0.1220,0.0060,-1.0205,1.9205,-0.4465,-0.3663
11504,-0.1149,-0.0015,-1.0195,0.6228,-0.4465,0.0917
11514,-0.1174,0.0029,-1.0152,-0.5527,-0.6755,0.5039
11524,-0.1132,0.0016,-1.0086,-1.4535,-0.7976,0.8703
11534,-0.1056,0.0138,-1.0002,-2.4153,-0.8434,1.1146
11544,-0.1127,0.0033,-1.0060,-2.9802,-0.6908,1.1298
11554,-0.1034,0.0138,-1.0055,-2.9802,-0.7671,1.1298
11564,-0.1115,0.0055,-0.9995,-3.0566,-0.3549,0.9314
11574,-0.1110,0.0102,-1.0103,-3.0871,-0.0037,0.7940
11584,-0.1176,0.0051,-0.9852,-3.1024,0.2253,0.5497
11594,-0.0987,0.0063,-0.9845,-2.5069,0.2405,0.6718
11604,-0.1115,0.0136,-0.9912,-1.4840,0.0268,0.1527
11614,-0.1117,0.0104,-0.9949,-0.5527,-0.0037,-0.1526
11624,-0.1120,0.0060,-0.9929,-0.0031,0.1947,-0.3053
11634,-0.1088,0.0090,-0.9970,0.3938,0.4390,-0.4885
11644,-0.1191,0.0126,-1.0026,0.7297,0.5001,-0.6564
11654,-0.1135,0.0146,-0.9997,1.0198,0.2863,-0.6564
11664,-0.1179,0.0070,-1.0084,1.1419,-0.0495,-0.4579
11674,-0.1098,0.0112,-0.9973,1.0198,-0.3702,-0.3205
11684,-0.1132,0.0107,-1.0057,1.1724,-0.4923,-0.4579
11694,-0.1188,0.0038,-1.0050,1.1114,-0.5686,-0.4274
11704,-0.1098,0.0097,-1.0062,0.5160,-0.2938,0.0153
11714,-0.1127,0.0036,-1.0125,-0.2474,-0.0648,0.1222
11724,-0.1088,0.0073,-0.9987,-1.0413,0.1184,0.5802
11734,-0.1054,0.0053,-0.9871,-0.8734,-0.0495,0.6718
11744,-0.1031,0.0148,-0.9951,-0.1863,-0.3549,0.4428
11754,-0.1093,0.0099,-1.0096,0.3938,-0.8129,0.2444
11764,-0.1215,0.0055,-1.0028,0.2411,-0.7976,0.0153
11774,-0.1066,0.0114,-0.9890,0.0579,-0.5839,0.3207
11784,-0.1071,0.0114,-0.9949,0.4396,-0.2175,0.1069
11794,-0.1152,0.0107,-1.0062,0.7450,0.0879,-0.1221
11804,-0.1105,0.0094,-0.9922,1.0808,0.1642,-0.3663
11814,-0.1171,0.0075,-1.0108,1.5389,-0.0648,-0.4732
11824,-0.1117,0.0104,-0.9990,1.4320,-0.2480,-0.1984
11834,-0.1073,0.0114,-0.9968,1.6915,-0.3854,-0.0152
11844,-0.1161,0.0094,-0.9997,2.2106,-0.4618,-0.3816
11854,-0.1085,0.0097,-1.0060,2.4396,-0.4465,-0.5801
11864,-0.1176,0.0016,-1.0193,2.3785,-0.4465,-0.5343
11874,-0.1157,0.0019,-1.0099,1.6457,-0.2633,-0.1831
11884,-0.1081,0.0063,-1.0043,1.2182,-0.1259,0.1680
11894,-0.1137,0.0016,-1.0011,0.8518,0.1795,0.0306
11904,-0.1105,0.0043,-0.9946,0.7144,0.3627,0.0306
11914,-0.1056,0.0070,-0.9895,1.1419,0.3016,-0.1221
11924,-0.1120,0.0048,-0.9963,1.9511,0.2100,-0.5648
11934,-0.1186,-0.0006,-1.0021,2.3938,-0.0648,-0.6411
11944,-0.1137,0.0055,-1.0183,2.5618,-0.4312,-0.3816
11954,-0.1103,0.0051,-1.0082,2.4244,-0.7671,-0.1679
11964,-0.1198,0.0002,-1.0082,2.0579,-0.9350,0.0764
11974,-0.1098,0.0029,-0.9999,1.4015,-0.9045,0.5650
11984,-0.1108,0.0055,-0.9903,1.4167,-0.7976,0.6108
11994,-0.1076,0.0063,-0.9912,1.7526,-0.5076,0.3512
12004,-0.1117,0.0014,-0.9970,2.1953,-0.3091,-0.2289
12014,-0.1149,0.0014,-1.0038,2.4702,-0.1106,-0.6411
12024,-0.1112,0.0002,-1.0065,2.4702,0.2253,-0.7327
12034,-0.1125,0.0011,-0.9997,2.3938,0.4237,-0.9007
12044,-0.1164,-0.0025,-1.0103,2.4091,0.4848,-1.0992
12054,-0.1161,0.0033,-1.0011,2.3327,0.6527,-1.0839
12064,-0.1318,-0.0045,-1.0019,1.9511,0.5764,-0.9923
12074,-0.1115,0.0014,-1.0007,1.5236,0.7138,-0.3053
12084,-0.1073,-0.0045,-1.0019,1.3862,0.6375,-0.0763
12094,-0.1085,-0.0015,-0.9997,1.7984,0.5917,-0.1526
12104,-0.1046,-0.0037,-0.9980,2.2411,0.2405,-0.4579
12114,-0.1112,-0.0023,-1.0055,2.5770,0.0726,-0.9160
12124,-0.1076,-0.0057,-0.9985,3.1114,0.0573,-1.0076
12134,-0.1100,-0.0047,-0.9944,3.4167,0.0573,-1.2976
12144,-0.1103,-0.0045,-1.0101,3.9969,0.0268,-1.4808
12154,-0.1191,-0.0111,-1.0106,3.6915,-0.1564,-1.4961
12164,-0.1110,-0.0008,-1.0079,2.8671,-0.3396,-0.9923
12174,-0.1088,-0.0076,-1.0173,2.2564,-0.6602,-0.8244
12184,-0.1218,-0.0093,-1.0096,1.7068,-0.8282,-0.7633
12194,-0.1161,-0.0008,-1.0181,0.7602,-0.3549,-0.2747
12204,-0.1171,-0.0098,-1.0106,-0.5375,0.1337,0.1069
12214,-0.1115,-0.0032,-1.0004,-1.1787,0.3321,0.3360
12224,-0.1184,-0.0091,-1.0038,-1.3466,0.3321,0.2749
12234,-0.1184,-0.0054,-0.9953,-1.2703,0.1947,0.3207
12244,-0.1208,-0.0040,-1.0096,-1.3161,0.0726,0.3665
12254,-0.1164,-0.0052,-1.0062,-1.4535,0.1489,0.4734
12264,-0.1120,0.0007,-0.9992,-1.7131,0.5153,0.5650
12274,-0.1071,-0.0040,-1.0014,-1.7283,0.7444,0.3970
12284,-0.1112,-0.0015,-0.9893,-1.3008,0.8665,0.1375
12294,-0.1073,-0.0050,-1.0026,-0.5527,0.6680,-0.0610
12304,-0.1122,-0.0040,-1.0021,-0.1253,0.3932,0.0764
12314,-0.1103,-0.0062,-0.9965,0.1953,0.0573,-0.0152
12324,-0.1098,-0.0103,-1.0111,0.3938,-0.2785,0.0001
12334,-0.1081,-0.0057,-1.0048,0.1953,-0.2785,0.0459
12344,-0.1110,-0.0040,-1.0031,0.1190,-0.2327,-0.0457
12354,-0.1157,-0.0091,-1.0036,0.2259,-0.3091,-0.1679
12364,-0.1218,-0.0111,-1.0040,0.0121,-0.0648,0.0459
12374,-0.1184,-0.0040,-0.9999,-0.5680,-0.0648,0.3207
12384,-0.1108,-0.0042,-1.0031,-0.4611,-0.1564,0.4276
12394,-0.1152,-0.0013,-1.0108,-0.3695,-0.2022,0.4428
12404,-0.1135,-0.0006,-1.0055,-0.6138,-0.4160,0.3818
12414,-0.1098,-0.0040,-1.0026,-0.6902,-0.5839,0.3054
12424,-0.1105,-0.0001,-1.0115,-0.7207,-0.4618,0.0153
12434,-0.1206,-0.0040,-1.0077,-1.3008,-0.0495,-0.1526
12444,-0.1193,-0.0052,-1.0014,-2.1558,0.5306,0.2291
12454,-0.1103,-0.0013,-1.0011,-2.3237,0.7138,0.5650
12464,-0.1142,-0.0013,-0.9922,-1.8199,0.6833,0.3054
12474,-0.1066,-0.0008,-0.9934,-1.0718,0.4237,0.1985
12484,-0.1085,0.0011,-0.9917,-0.3237,0.1184,-0.1831
12494,-0.1103,0.0016,-1.0045,0.3633,-0.0953,-0.5190
12504,-0.1056,-0.0020,-1.0033,0.7297,-0.2633,-0.8244
12514,-0.1081,-0.0003,-1.0028,0.8976,-0.1869,-1.0381
12524,-0.1166,-0.0025,-1.0152,0.7755,-0.1106,-1.2518
12534,-0.1238,-0.0101,-1.0094,-0.0337,0.2405,-0.7938
12544,-0.1176,-0.0067,-0.9980,-0.9039,0.6527,-0.0763
12554,-0.1154,-0.0042,-0.9980,-1.1787,0.7138,0.1527
12564,-0.1112,0.0024,-0.9965,-0.7207,0.5153,0.2291
12574,-0.1071,0.0043,-0.9881,0.1953,-0.0037,-0.0305
12584,-0.1098,-0.0010,-0.9886,1.1419,-0.3702,-0.3358
12594,-0.1093,-0.0042,-0.9982,2.0121,-0.7671,-0.7175
12604,-0.1152,-0.0030,-0.9995,2.6076,-0.9656,-0.8396
12614,-0.1169,-0.0076,-0.9924,2.8366,-0.7671,-0.6869
12624,-0.1132,-0.0042,-1.0031,3.4015,-0.7671,-1.0076
12634,-0.1264,-0.0137,-1.0125,3.5541,-0.9198,-1.0992
12644,-0.1112,-0.0084,-1.0038,3.0961,-0.8282,-0.5037
12654,-0.1022,-0.0079,-0.9920,3.3709,-0.8129,-0.3816
12664,-0.1108,0.0007,-0.9898,4.1495,-0.8892,-0.9312
12674,-0.1049,-0.0018,-1.0060,4.5007,-0.7060,-1.3740
12684,-0.1157,-0.0091,-1.0123,4.0885,-0.3854,-1.3740
12694,-0.1191,-0.0069,-1.0135,3.2946,-0.0343,-1.1755
12704,-0.1211,-0.0101,-1.0137,2.0885,0.1184,-0.9007
12714,-0.1191,-0.0086,-1.0164,0.6228,0.1947,-0.4121
12724,-0.1208,-0.0147,-1.0084,-0.6138,0.4695,0.0306
12734,-0.1196,-0.0118,-1.0045,-1.5756,0.8665,0.5497
12744,-0.1088,-0.0057,-1.0065,-2.2169,1.1260,0.9008
12754,-0.1100,-0.0035,-1.0004,-2.2779,1.2482,0.9161
12764,-0.1081,-0.0032,-0.9973,-2.0642,1.0497,0.6260
12774,-0.1076,-0.0096,-0.9958,-1.5909,0.5306,0.3970
12784,-0.1085,-0.0111,-0.9995,-0.7665,0.0115,0.0764
12794,-0.1110,-0.0086,-1.0009,-0.4306,-0.0801,-0.1373
12804,-0.1166,-0.0103,-1.0103,-0.2474,-0.1106,-0.1984
12814,-0.1176,-0.0142,-1.0067,-0.5222,-0.1106,0.1375
12824,-0.1110,-0.0067,-0.9995,-0.6902,0.0573,0.4276
12834,-0.1068,-0.0062,-0.9980,-0.4611,-0.0495,0.3970
12844,-0.1090,-0.0064,-1.0016,0.1495,-0.3091,0.0917
12854,-0.1125,-0.0045,-1.0077,0.2564,-0.4923,-0.1221
12864,-0.1093,-0.0035,-1.0091,0.2106,-0.3854,-0.1831
12874,-0.1157,-0.0067,-0.9963,-0.0947,-0.1106,-0.3205
12884,-0.1154,-0.0059,-1.0026,-0.2932,0.1795,-0.2747
12894,-0.1186,-0.0081,-1.0099,-0.6596,0.3016,-0.1831
12904,-0.1098,-0.0098,-0.9992,-0.8734,0.2711,-0.0457
12914,-0.1078,-0.0037,-0.9915,-0.4611,0.0573,-0.2289
12924,-0.1135,-0.0059,-0.9949,0.1190,-0.2327,-0.6259
12934,-0.1211,-0.0042,-1.0115,0.5465,-0.3702,-0.7480
12944,-0.1144,-0.0098,-1.0077,0.2106,-0.3702,-0.3663
12954,-0.1093,-0.0113,-1.0053,-0.3390,-0.4007,0.0001
12964,-0.1174,-0.0062,-1.0094,-1.0871,-0.3244,0.3665
12974,-0.1152,-0.0111,-1.0026,-1.7131,-0.0801,0.9008
12984,-0.1056,-0.0071,-0.9958,-1.7741,0.2863,1.0993
12994,-0.1090,-0.0076,-0.9958,-1.1482,0.4237,0.8092
13004,-0.1071,-0.0045,-0.9915,-0.1100,0.0879,0.2596
13014,-0.1071,-0.0059,-1.0038,0.7297,-0.1564,-0.2595
13024,-0.1135,-0.0054,-1.0091,1.2182,-0.2938,-0.6259
13034,-0.1166,-0.0074,-1.0067,0.9129,-0.2022,-0.6564
13044,-0.1132,-0.0074,-1.0043,0.3633,-0.0495,-0.4579
13054,-0.1181,-0.0093,-1.0048,-0.0337,0.0421,-0.2289
13064,-0.1164,-0.0106,-1.0045,-0.2779,0.0573,-0.0610
13074,-0.1149,-0.0145,-1.0021,-0.5069,-0.0190,0.1833
13084,-0.1115,-0.0042,-0.9953,-0.4764,-0.1564,0.2138
13094,-0.1112,-0.0047,-0.9995,-0.4459,-0.4770,0.0611
13104,-0.1036,0.0004,-0.9987,-0.2779,-0.7976,-0.1373
13114,-0.1144,-0.0054,-1.0072,0.0274,-0.8282,-0.5343
13124,-0.1242,-0.0079,-1.0154,-0.4764,-0.6755,-0.3205
13134,-0.1159,-0.0067,-1.0154,-1.4535,-0.4160,0.2902
13144,-0.1147,-0.0108,-1.0089,-2.2779,-0.2633,0.8092
13154,-0.1122,-0.0071,-1.0036,-2.7818,-0.1717,1.0688
13164,-0.1164,-0.0054,-0.9939,-2.9802,0.0115,1.2978
13174,-0.1071,0.0026,-0.9910,-2.7054,0.0421,1.2978
13184,-0.0992,-0.0025,-0.9874,-1.8963,0.1489,0.8703
13194,-0.1061,-0.0003,-0.9963,-0.9039,0.1795,0.2138
13204,-0.1186,-0.0008,-0.9922,-0.1405,0.1337,-0.2595
13214,-0.1137,-0.0042,-1.0084,0.1037,0.1489,-0.1679
13224,-0.1223,-0.0059,-1.0067,0.0274,0.1795,-0.1526
13234,-0.1213,-0.0071,-1.0016,-0.2169,0.0421,-0.0305
13244,-0.1154,-0.0050,-1.0007,-0.4611,-0.0343,0.2138
13254,-0.1181,-0.0040,-0.9980,-0.5375,-0.1259,0.3207
13264,-0.1139,-0.0037,-1.0033,-0.6596,0.0879,0.3665
13274,-0.1130,-0.0032,-1.0082,-0.6444,0.0726,0.3818
13284,-0.1149,0.0016,-1.0132,-0.7360,0.1337,0.4276
13294,-0.1125,-0.0052,-1.0028,-1.1940,0.2711,0.6718
13304,-0.1041,-0.0006,-0.9903,-1.3619,0.3321,0.9924
13314,-0.1039,-0.0020,-0.9895,-0.9039,0.3016,0.7176
13324,-0.1110,-0.0035,-0.9961,-0.0337,0.1184,0.1680
13334,-0.1100,-0.0001,-1.0009,0.3785,-0.0343,0.1069
13344,-0.1122,-0.0006,-1.0053,0.5618,-0.0343,-0.1068
13354,-0.1117,0.0026,-1.0062,0.3480,-0.0953,-0.1526
13364,-0.1088,-0.0047,-0.9980,0.1495,-0.0190,-0.1373
13374,-0.1085,0.0009,-0.9961,0.4244,-0.0648,-0.3205
13384,-0.1166,-0.0040,-0.9995,0.8060,-0.1717,-0.4121
13394,-0.1125,-0.0008,-1.0057,1.0350,-0.2327,-0.3053
13404,-0.1108,-0.0015,-0.9999,1.2030,-0.5381,-0.1373
13414,-0.1098,-0.0025,-0.9920,1.6152,-0.6602,-0.1831
13424,-0.1090,-0.0006,-1.0009,1.7984,-0.6908,-0.3663
13434,-0.1147,-0.0035,-1.0084,1.8137,-0.4007,-0.6564
13444,-0.1252,-0.0098,-1.0028,1.0350,0.0421,-0.5953
13454,-0.1090,-0.0059,-1.0067,0.2411,0.6069,-0.1221
13464,-0.1144,-0.0057,-1.0067,-0.0031,0.4848,-0.1068
13474,-0.1112,-0.0013,-0.9934,-0.5375,0.5764,0.2138
13484,-0.0995,-0.0035,-0.9859,-0.2474,0.5153,0.2291
13494,-0.1127,-0.0074,-0.9951,0.7602,0.0573,-0.5190
13504,-0.1154,-0.0081,-1.0057,1.3251,0.1031,-0.7480
13514,-0.1144,-0.0071,-0.9987,1.0656,0.1947,-0.6106
13524,-0.1137,-0.0067,-1.0130,0.7450,0.0879,-0.3969
13534,-0.1191,-0.0040,-1.0161,0.0885,-0.0037,-0.1526
13544,-0.1186,-0.0101,-1.0053,-0.5833,-0.1411,-0.0152
13554,-0.1073,-0.0071,-0.9978,-0.9802,-0.1869,0.2596
13564,-0.1061,-0.0067,-0.9886,-0.7970,-0.2480,0.0459
13574,-0.1164,-0.0015,-0.9920,-0.4764,-0.1411,-0.3358
13584,-0.1144,-0.0069,-0.9968,-0.3390,0.0879,-0.4732
13594,-0.1159,-0.0032,-0.9999,-0.5222,0.2711,-0.4427
13604,-0.1161,-0.0040,-1.0106,-0.4917,0.4085,-0.1679
13614,-0.1188,-0.0069,-1.0024,-0.4611,0.3169,0.0611
13624,-0.1137,-0.0015,-0.9978,-0.2932,-0.0495,0.1833
13634,-0.1090,-0.0069,-0.9963,0.1953,-0.3396,0.1680
13644,-0.1191,-0.0042,-1.0094,0.4854,-0.4618,-0.1373
13654,-0.1130,-0.0064,-1.0053,0.3785,-0.4160,-0.0305
13664,-0.1157,-0.0064,-1.0086,0.0579,-0.2480,0.0306
13674,-0.1110,0.0004,-0.9975,0.0274,-0.0801,0.0917
13684,-0.1103,-0.0062,-0.9934,0.2564,0.2405,-0.0457
13694,-0.1117,-0.0035,-0.9932,1.0198,0.3779,-0.2900
13704,-0.1159,-0.0079,-0.9968,1.6457,0.2711,-0.6106
13714,-0.1164,-0.0103,-1.0069,1.9816,-0.0495,-0.5190
13724,-0.1125,-0.0067,-1.0147,1.4931,-0.2022,-0.2442
13734,-0.1144,-0.0069,-1.0137,0.8824,-0.4465,0.1680
13744,-0.1161,-0.0081,-1.0149,-0.0489,-0.4618,0.1680
13754,-0.1161,-0.0062,-1.0060,-1.0871,-0.1411,0.4886
13764,-0.1193,-0.0130,-0.9864,-2.0489,0.1489,0.5192
13774,-0.1076,-0.0054,-0.9995,-2.0337,0.0879,0.6413
13784,-0.1166,-0.0064,-0.9898,-1.8352,-0.0190,0.4734
13794,-0.1137,-0.0025,-0.9995,-1.2245,-0.1259,0.3054
13804,-0.1179,-0.0047,-1.0021,-1.1329,-0.2175,0.3207
13814,-0.1125,-0.0052,-1.0091,-1.3161,-0.1869,0.6108
13824,-0.1005,-0.0006,-0.9999,-1.6062,-0.1106,0.7329
13834,-0.1196,-0.0054,-1.0038,-1.8199,-0.0190,0.6566
13844,-0.1117,-0.0040,-1.0007,-2.0337,0.1642,0.6108
13854,-0.1176,-0.0047,-1.0057,-2.1558,0.5306,0.4581
13864,-0.1142,-0.0040,-0.9939,-2.2627,0.4848,0.6871
13874,-0.1125,-0.0030,-1.0101,-2.0337,0.3627,0.5344
13884,-0.1169,-0.0040,-0.9808,-2.0184,0.3169,0.4581
13894,-0.1117,0.0038,-0.9944,-1.5298,0.3779,0.4428
13904,-0.1115,-0.0013,-1.0019,-1.2550,0.1489,0.2902
13914,-0.1049,0.0041,-0.9987,-1.0413,0.0879,0.2596
13924,-0.1139,-0.0084,-0.9992,-0.9802,-0.0953,0.0917
13934,-0.1098,-0.0015,-0.9982,-0.5985,-0.3396,0.0153
13944,-0.1191,-0.0069,-0.9927,-0.4611,-0.4770,-0.2595
13954,-0.1132,0.0058,-1.0096,-0.4764,-0.5992,-0.0457
13964,-0.1122,-0.0047,-0.9999,-0.8276,-0.4312,0.2596
13974,-0.1112,0.0041,-0.9920,-0.9344,-0.0037,0.2138
13984,-0.1049,-0.0037,-0.9973,-0.6291,0.1795,0.0917
13994,-0.1171,0.0007,-1.0009,-0.4611,0.2100,-0.1221
14004,-0.1125,-0.0032,-0.9944,-0.5375,0.2100,0.0459
14014,-0.1142,0.0036,-1.0065,-0.2932,0.0115,-0.0457
14024,-0.1157,0.0031,-1.0002,-0.1711,-0.0648,0.0611
14034,-0.1159,-0.0018,-0.9946,-0.2779,0.1337,0.1069
14044,-0.1147,0.0033,-0.9905,0.1190,0.1947,-0.0305
14054,-0.1098,0.0033,-0.9973,0.8671,0.1947,-0.1526
14064,-0.1105,-0.0020,-0.9963,1.5389,-0.0190,-0.3511
14074,-0.1147,-0.0008,-1.0057,2.1648,-0.3091,-0.6411
14084,-0.1157,-0.0028,-1.0181,2.1190,-0.5534,-0.6717
14094,-0.1149,-0.0052,-1.0019,1.6152,-0.5381,-0.3816
14104,-0.1117,-0.0008,-1.0086,1.2793,-0.4312,-0.3053
14114,-0.1068,-0.0037,-1.0009,0.8976,-0.1869,-0.3511
14124,-0.1083,0.0007,-0.9910,0.9740,0.2100,-0.6564
14134,-0.1157,-0.0059,-1.0055,1.2182,0.0726,-0.8854
14144,-0.1174,-0.0064,-1.0050,1.1419,0.0115,-0.6869
14154,-0.1198,-0.0028,-0.9987,0.8060,-0.2022,-0.3205
14164,-0.1147,-0.0028,-1.0166,0.6381,-0.4007,-0.1526
14174,-0.1188,-0.0089,-1.0086,-0.0184,-0.5076,0.3360
14184,-0.1174,-0.0010,-1.0040,-0.8123,-0.3091,0.8398
14194,-0.1117,-0.0042,-0.9910,-1.2703,-0.1717,0.8856
14204,-0.1117,0.0053,-0.9927,-1.3008,0.0115,0.6260
14214,-0.1142,-0.0003,-0.9941,-1.1787,0.2253,0.5039
14224,-0.1105,0.0004,-0.9929,-0.7970,0.4848,0.1527
14234,-0.1154,-0.0023,-1.0019,-0.3237,0.5917,-0.2289
14244,-0.1135,-0.0025,-0.9924,-0.1100,0.5459,-0.2595
14254,-0.1242,0.0026,-1.0086,-0.0795,0.3779,-0.6259
14264,-0.1083,-0.0098,-1.0004,0.4396,0.4237,-0.5648
14274,-0.1120,0.0063,-1.0082,0.6381,0.5001,-0.6869
14284,-0.1051,-0.0037,-1.0077,0.6076,0.5153,-1.0228
14294,-0.1198,-0.0062,-1.0077,0.2259,0.7291,-0.9923
14304,-0.1169,-0.0040,-1.0033,-0.3390,1.1413,-0.5953
14314,-0.1066,-0.0001,-0.9939,-0.4153,1.1108,-0.5495
14324,-0.1206,-0.0018,-0.9953,-0.1405,1.0039,-0.9618
14334,-0.1132,-0.0030,-0.9932,0.4854,0.7902,-0.9312
14344,-0.1103,-0.0013,-1.0072,1.0503,0.1489,-0.9770
14354,-0.1159,-0.0010,-1.0115,1.2030,-0.3702,-0.8091
14364,-0.1159,-0.0042,-1.0043,0.8518,-0.6144,-0.3358
14374,-0.1088,-0.0006,-1.0113,0.5160,-0.7366,-0.0915
14384,-0.1193,-0.0108,-1.0084,0.0274,-0.7060,0.0306
14394,-0.1122,0.0063,-1.0108,-0.5833,-0.4770,0.2749
14404,-0.1147,-0.0071,-1.0033,-0.9955,-0.3702,0.4428
14414,-0.1115,0.0014,-1.0019,-0.9192,-0.2175,0.3665
14424,-0.1076,-0.0054,-1.0036,-1.0108,-0.0343,0.3970
14434,-0.1122,-0.0010,-0.9949,-0.8428,0.2863,0.1527
14444,-0.1179,0.0029,-1.0002,-0.6749,0.1947,-0.1526
14454,-0.1149,-0.0037,-1.0053,-0.7665,0.3474,-0.1679
14464,-0.1171,-0.0018,-1.0011,-1.1024,0.5917,-0.1068
14474,-0.1120,0.0016,-0.9934,-1.0260,0.5611,-0.0610
14484,-0.1130,-0.0045,-0.9951,-0.6902,0.3779,-0.1831
14494,-0.1164,0.0004,-0.9970,-0.3543,0.2405,-0.0610
14504,-0.1100,0.0019,-1.0038,-0.2321,0.0879,0.0459
14514,-0.1100,0.0021,-1.0130,-0.1711,-0.0343,0.0153
14524,-0.1130,-0.0042,-1.0149,-0.4917,-0.1564,0.1833
14534,-0.1157,0.0007,-1.0099,-1.0108,-0.0495,0.4734
14544,-0.1083,-0.0045,-1.0007,-1.6978,0.1184,0.7176
14554,-0.1019,0.0011,-0.9995,-1.9115,0.1489,0.9466
14564,-0.1024,-0.0025,-0.9849,-1.3924,-0.0648,0.6108
14574,-0.1083,0.0029,-0.9980,-0.4153,-0.4618,0.1375
14584,-0.1144,-0.0010,-1.0072,-0.0184,-0.5686,-0.0915
14594,-0.1112,0.0038,-1.0043,-0.3543,-0.2938,0.0306
14604,-0.1105,0.0009,-1.0019,-0.7512,-0.0953,0.1222
14614,-0.1139,0.0036,-1.0011,-0.9344,-0.0801,0.1375
14624,-0.1088,-0.0015,-0.9951,-0.8123,-0.1717,0.1985
14634,-0.1110,-0.0018,-0.9912,-0.4917,-0.2480,0.0153
14644,-0.1169,0.0024,-0.9946,-0.0031,-0.2633,-0.1068
14654,-0.1142,-0.0020,-1.0028,0.1495,-0.1106,-0.1526
14664,-0.1144,0.0048,-0.9929,-0.0184,0.0879,0.0459
14674,-0.1125,-0.0028,-0.9970,-0.0795,0.1184,0.1680
14684,-0.1085,0.0016,-1.0072,0.1801,-0.0190,0.1222
14694,-0.1125,-0.0001,-1.0060,0.1801,-0.2327,0.1222
14704,-0.1137,0.0007,-1.0065,-0.0489,-0.1869,0.3818
14714,-0.1132,-0.0008,-1.0103,-0.4459,-0.0953,0.6108
14724,-0.1088,0.0009,-1.0033,-0.7970,0.1031,0.7024
14734,-0.1132,0.0051,-1.0055,-1.1024,0.3474,0.6413
14744,-0.1058,0.0048,-1.0002,-1.3466,0.4237,0.4886
14754,-0.1093,0.0029,-1.0036,-1.1329,0.1947,0.2138
14764,-0.1137,-0.0008,-1.0028,-1.1329,-0.0190,0.2138
14774,-0.1152,0.0041,-0.9939,-1.0718,-0.2175,0.4123
14784,-0.1176,0.0046,-0.9990,-0.9802,-0.2022,0.4428
14794,-0.1100,-0.0010,-0.9956,-0.7054,-0.0953,0.5497
14804,-0.1125,0.0038,-0.9958,-0.1863,-0.1259,0.2444
14814,-0.1188,0.0024,-1.0065,0.3022,-0.3244,0.1527
14824,-0.1230,0.0014,-1.0082,-0.0031,-0.4007,0.3665
14834,-0.1171,0.0038,-1.0004,-0.5527,-0.0801,0.8245
14844,-0.1090,0.0092,-1.0050,-0.5680,0.1184,0.7787
14854,-0.1076,-0.0013,-1.0062,-0.2474,-0.0343,0.3360
14864,-0.1171,0.0026,-1.0048,-0.1405,-0.1717,0.0306
14874,-0.1218,0.0080,-0.9917,-0.4917,-0.1411,0.1680
14884,-0.0995,0.0029,-0.9985,-0.2779,-0.2785,0.3512
14894,-0.1152,0.0002,-0.9970,0.3022,-0.5839,-0.0915
14904,-0.1161,-0.0028,-1.0050,0.6534,-0.7060,-0.2289
14914,-0.1186,0.0033,-1.0113,0.3633,-0.3396,-0.2595
14924,-0.1019,0.0134,-0.9951,-0.1711,0.1489,-0.0763
14934,-0.1213,-0.0035,-0.9987,-0.5833,0.4085,-0.2747
14944,-0.1144,0.0075,-0.9949,-0.1863,0.3016,-0.2442
14954,-0.1218,-0.0025,-0.9965,0.2106,0.0268,-0.2442
14964,-0.1152,0.0043,-1.0050,0.3785,-0.1564,-0.0763
14974,-0.1159,0.0009,-0.9982,0.3938,-0.3854,0.2902
14984,-0.1085,0.0024,-1.0002,0.5618,-0.4923,0.2596
14994,-0.1095,0.0041,-1.0019,0.9892,-0.6755,0.1833
15004,-0.1179,-0.0006,-1.0072,1.0350,-0.5686,-0.0305
15014,-0.1117,0.0004,-1.0024,0.5465,-0.3091,-0.0457
15024,-0.1132,0.0019,-1.0082,-0.0031,0.0573,0.0306
15034,-0.1166,-0.0006,-0.9934,-0.2016,0.4543,-0.1373
15044,-0.1154,0.0063,-0.9890,0.0579,0.7291,-0.3358
15054,-0.1125,0.0021,-0.9939,0.6686,0.7902,-0.8244
15064,-0.1122,0.0031,-1.0024,1.5694,0.7138,-1.1297
15074,-0.1137,-0.0018,-1.0055,2.0732,0.4237,-1.2824
15084,-0.1176,0.0026,-1.0106,2.1953,0.0115,-1.2976
15094,-0.1242,0.0026,-1.0004,1.6457,-0.2480,-0.9312
15104,-0.1181,-0.0020,-1.0166,0.8060,-0.4007,-0.4579
15114,-0.1176,-0.0074,-1.0094,-0.1100,-0.3244,0.1833
15124,-0.1071,-0.0062,-0.9944,-0.7207,-0.0648,0.6260
15134,-0.1149,-0.0023,-0.9958,-0.6749,-0.3091,0.5497
15144,-0.1169,0.0055,-1.0002,-0.3695,-0.4465,0.6413
15154,-0.1039,-0.0013,-0.9973,-0.2321,-0.4923,0.7634
15164,-0.1142,0.0046,-1.0079,0.0885,-0.4770,0.5497
15174,-0.1130,-0.0057,-1.0038,0.1037,-0.4160,0.2444
15184,-0.1171,0.0016,-1.0086,-0.1711,-0.2175,0.2444
15194,-0.1137,-0.0018,-0.9975,-0.3543,0.1337,0.3818
15204,-0.1142,-0.0040,-0.9869,0.0274,0.3169,0.0917
15214,-0.1161,-0.0001,-1.0036,0.3938,0.4390,-0.0152
15224,-0.1105,0.0036,-0.9939,0.6381,0.3627,-0.1221
15234,-0.1154,0.0002,-1.0062,0.9892,0.1031,-0.4274
15244,-0.1186,0.0031,-1.0089,0.8366,0.0115,-0.4732
15254,-0.1184,-0.0025,-1.0007,0.5618,0.1031,-0.3969
15264,-0.1191,-0.0001,-1.0111,-0.0795,0.3932,-0.2289
15274,-0.1159,-0.0045,-1.0031,-0.8276,0.7902,-0.0152
15284,-0.1049,-0.0006,-0.9992,-0.9650,0.9276,0.2902
15294,-0.1098,-0.0025,-0.9915,-0.6749,0.5153,0.2749
15304,-0.1098,0.0014,-0.9949,0.1953,0.0879,0.0611
15314,-0.1115,-0.0028,-1.0033,0.8824,-0.1564,-0.0152
15324,-0.1090,0.0019,-1.0053,0.9740,-0.3091,0.0764
15334,-0.1054,-0.0001,-0.9958,0.8060,-0.2633,0.0917
15344,-0.1135,0.0038,-1.0108,0.6228,-0.1564,-0.0915
15354,-0.1152,-0.0059,-1.0103,-0.0489,-0.1106,-0.1373
15364,-0.1169,-0.0020,-1.0091,-0.7512,0.1031,0.2291
15374,-0.1117,-0.0008,-0.9905,-1.1024,0.1337,0.3665
15384,-0.1152,0.0024,-1.0077,-0.9192,0.0573,0.2291
15394,-0.1139,0.0016,-0.9968,-0.4611,-0.0037,0.0306
15404,-0.1152,0.0016,-1.0016,-0.1711,-0.1869,0.0001
15414,-0.1166,0.0048,-1.0014,-0.1863,-0.5076,0.0459
15424,-0.1130,0.0031,-1.0089,-0.2779,-0.7366,0.1680
15434,-0.1186,-0.0013,-1.0094,-0.7207,-0.6755,0.2596
15444,-0.1127,-0.0003,-1.0007,-1.1176,-0.4770,0.3970
15454,-0.1149,0.0033,-0.9992,-1.3161,-0.0190,0.3665
15464,-0.1176,0.0048,-0.9920,-1.3772,0.5153,0.3665
15474,-0.1137,0.0014,-0.9934,-0.8428,0.7138,0.3207
15484,-0.1161,0.0033,-0.9924,-0.3390,0.5153,0.3360
15494,-0.1078,0.0058,-0.9949,0.1037,0.0879,0.1985
15504,-0.1054,0.0065,-1.0069,0.7908,-0.2480,-0.1373
15514,-0.1188,0.0014,-1.0144,0.7908,-0.2633,-0.4274
15524,-0.1122,0.0053,-1.0084,-0.1253,0.3321,-0.1221
15534,-0.1161,-0.0020,-1.0055,-0.6902,0.5611,-0.0610
15544,-0.1169,-0.0067,-1.0002,-0.9344,0.5917,0.0611
15554,-0.1127,-0.0001,-0.9869,-0.9497,0.5001,0.1680
15564,-0.1181,0.0026,-0.9895,-0.3237,0.2100,0.0306
15574,-0.1130,0.0011,-1.0011,0.4702,-0.0953,-0.1526
15584,-0.1090,0.0016,-1.0009,0.8824,-0.4465,-0.1221
15594,-0.1058,0.0073,-1.0183,1.1572,-0.6755,-0.3663
15604,-0.1076,-0.0010,-1.0016,0.9434,-0.5381,-0.5495
15614,-0.1108,0.0051,-1.0038,0.9892,-0.2938,-0.6717
15624,-0.1284,-0.0108,-1.0154,0.3785,0.0879,-0.7785
15634,-0.1225,0.0031,-1.0118,-0.8428,0.5611,-0.1984
15644,-0.1144,-0.0032,-1.0016,-1.6978,0.5611,0.3512
15654,-0.1120,-0.0030,-0.9965,-1.4688,0.2405,0.4428
15664,-0.1144,0.0055,-0.9982,-1.1482,0.0726,0.3970
15674,-0.1144,0.0053,-0.9944,-0.9344,-0.0037,0.3970
15684,-0.1125,0.0060,-1.0060,-0.6902,-0.2175,0.3665
15694,-0.1083,0.0051,-1.0060,-1.0108,-0.0495,0.1833
15704,-0.1161,0.0038,-1.0065,-1.4688,-0.0495,0.2749
15714,-0.1159,0.0031,-1.0099,-1.9726,-0.0495,0.3970
15724,-0.1090,0.0011,-0.9958,-2.1253,0.0879,0.5039
15734,-0.1130,0.0036,-1.0038,-1.8047,0.1184,0.4276
15744,-0.1110,0.0065,-0.9864,-1.2856,0.1795,0.3512
15754,-0.1142,0.0060,-0.9968,-0.3848,0.0573,0.1069
15764,-0.1132,0.0060,-1.0024,0.2259,-0.0953,-0.1984
15774,-0.1147,0.0080,-1.0077,0.1953,-0.1411,-0.1526
15784,-0.1139,0.0046,-1.0024,-0.0337,-0.1869,-0.1831
15794,-0.1179,0.0011,-1.0115,-0.3695,-0.1869,-0.1679
15804,-0.1120,0.0029,-0.9949,-0.8276,0.0115,-0.0763
15814,-0.1203,-0.0006,-0.9854,-0.8123,0.0726,-0.0152
15824,-0.1149,0.0116,-0.9949,-0.2016,0.2100,-0.0915
15834,-0.1076,-0.0030,-0.9883,0.3633,0.2405,-0.0915
15844,-0.1115,0.0102,-1.0040,0.9434,0.2711,-0.1373
15854,-0.1137,0.0070,-1.0007,1.1114,0.1184,-0.2747
15864,-0.1105,0.0070,-0.9978,1.0656,0.0421,-0.3358
15874,-0.1112,0.0026,-1.0096,0.8366,0.0268,-0.6106
15884,-0.1169,-0.0035,-1.0118,0.3633,0.1947,-0.6564
15894,-0.1179,-0.0040,-1.0060,-0.2779,0.3169,-0.2747
15904,-0.1135,-0.0040,-1.0031,-0.6138,0.2558,0.0917
15914,-0.1142,0.0033,-0.9978,-0.9497,0.2558,0.3512
15924,-0.1078,0.0029,-0.9999,-0.8581,0.2558,0.4123
15934,-0.1041,0.0094,-1.0065,-0.4917,-0.0953,0.2596
15944,-0.1122,0.0046,-1.0103,-0.4459,-0.2327,0.1222
15954,-0.1095,0.0033,-1.0031,-0.8123,-0.0495,0.2291
15964,-0.1088,0.0055,-0.9999,-1.0566,0.0115,0.1375
15974,-0.1144,0.0029,-1.0028,-0.8886,0.0421,-0.0763
15984,-0.1179,0.0019,-0.9978,-0.9802,0.1795,-0.1221
15994,-0.1176,0.0014,-0.9963,-0.9497,0.3779,0.0153
16004,-0.1115,0.0024,-0.9895,-0.4001,0.2100,0.0306
16014,-0.1110,0.0087,-1.0048,0.3480,-0.0343,-0.2137
16024,-0.1171,0.0031,-1.0103,0.6534,-0.1869,-0.3511
16034,-0.1179,0.0033,-1.0181,0.2717,-0.0801,-0.0915
16044,-0.1019,0.0112,-0.9953,-0.2321,0.0879,0.1375
16054,-0.1122,0.0048,-1.0074,-0.0337,-0.0037,-0.1373
16064,-0.1171,0.0031,-1.0062,0.0274,0.0421,-0.1526
16074,-0.1071,0.0019,-0.9961,-0.2169,0.0879,0.0611
16084,-0.1137,-0.0010,-1.0040,-0.2779,0.0573,-0.0915
16094,-0.1157,0.0033,-0.9985,-0.4917,0.2863,-0.0457
16104,-0.1085,0.0090,-1.0011,-0.5833,0.3474,-0.0152
16114,-0.1127,0.0087,-0.9978,-0.5375,0.4237,-0.0915
16124,-0.1157,0.0033,-1.0132,-0.4153,0.3169,-0.2442
16134,-0.1127,0.0041,-1.0019,-0.5527,0.2863,0.0001
16144,-0.1100,0.0102,-0.9907,-0.5680,0.2558,0.2749
16154,-0.1108,0.0004,-0.9939,0.0885,0.1031,0.1375
16164,-0.1157,0.0014,-1.0135,0.6992,-0.1106,-0.0915
16174,-0.1159,0.0024,-1.0062,0.6534,-0.1869,0.1833
16184,-0.1125,0.0036,-1.0089,0.1801,-0.1717,0.3054
16194,-0.1056,0.0119,-1.0045,-0.1711,-0.1564,0.3512
16204,-0.1076,0.0055,-1.0026,-0.2627,-0.0343,0.0001
16214,-0.1147,0.0097,-1.0024,-0.3695,-0.0801,-0.0457
16224,-0.1108,0.0011,-1.0019,-0.5833,0.1489,-0.0610
16234,-0.1159,0.0009,-0.9968,-0.4001,0.3016,-0.0152
16244,-0.1130,0.0065,-0.9917,-0.1711,0.2100,0.1222
16254,-0.1085,0.0060,-0.9963,0.3938,0.0726,-0.0305
16264,-0.1142,0.0055,-1.0053,1.0656,-0.1411,-0.2900
16274,-0.1127,0.0087,-1.0016,1.1572,-0.1564,-0.3663
16284,-0.1073,0.0080,-1.0072,1.0198,-0.0190,-0.3205
16294,-0.1171,0.0055,-1.0147,0.5770,0.0726,-0.3663
16304,-0.1122,0.0070,-1.0024,-0.1863,0.2558,-0.0305
16314,-0.1078,0.0007,-0.9946,-0.1405,0.3169,0.0764
16324,-0.1130,0.0046,-1.0048,0.5160,0.1642,-0.1373
16334,-0.1159,0.0019,-0.9982,0.7908,0.2100,-0.1679
16344,-0.1095,0.0026,-1.0084,0.6228,0.2253,-0.1068
16354,-0.1117,0.0055,-1.0014,0.4244,0.2405,-0.1831
16364,-0.1110,0.0097,-1.0053,0.3938,0.3627,-0.3358
16374,-0.1188,0.0063,-1.0024,0.3633,0.3016,-0.5343
16384,-0.1142,0.0024,-1.0077,0.2564,0.2863,-0.4885
16394,-0.1139,-0.0028,-1.0067,-0.0947,0.2100,-0.2900
16404,-0.1142,-0.0018,-1.0014,-0.4001,0.1795,-0.0763
16414,-0.1112,0.0024,-0.9956,-0.3543,0.0115,-0.0152
16424,-0.1137,0.0041,-0.9934,-0.0795,-0.0037,-0.1221
16434,-0.1090,0.0036,-1.0091,0.1343,0.0268,-0.1679
16444,-0.1122,0.0058,-1.0118,-0.0489,0.1031,-0.1221
16454,-0.1130,0.0068,-1.0007,-0.4001,0.1947,-0.0305
16464,-0.1068,0.0073,-0.9932,-0.5527,0.2711,0.0153
16474,-0.1090,0.0053,-0.9975,-0.1711,0.1184,-0.1984
16484,-0.1161,0.0043,-1.0103,0.1190,-0.0495,-0.3511
16494,-0.1176,-0.0008,-1.0031,-0.4153,-0.0648,-0.1068
16504,-0.1149,0.0026,-1.0055,-1.1024,-0.0495,0.3054
16514,-0.1076,0.0046,-0.9995,-1.4230,-0.1869,0.7329
16524,-0.1078,0.0073,-1.0026,-1.2092,-0.3396,0.6718
16534,-0.1068,0.0051,-0.9953,-0.8734,-0.4618,0.4886
16544,-0.1054,0.0068,-1.0026,-0.6749,-0.5228,0.1833
16554,-0.1132,0.0053,-1.0028,-0.8276,-0.3702,-0.0305
16564,-0.1135,0.0038,-1.0060,-0.9344,-0.0190,-0.0152
16574,-0.1159,0.0036,-0.9980,-0.9650,0.1947,0.0459
16584,-0.1181,0.0041,-0.9963,-0.9497,0.3016,0.1833
16594,-0.1090,0.0046,-0.9932,-0.6749,0.2405,0.3054
16604,-0.1085,0.0055,-0.9985,-0.1405,0.0726,0.2291
16614,-0.1081,0.0087,-1.0011,0.3633,-0.0953,-0.0305
16624,-0.1132,0.0058,-1.0074,0.5160,-0.0953,-0.1679
16634,-0.1132,0.0029,-1.0069,0.1801,-0.0495,-0.1526
16644,-0.1147,0.0051,-0.9987,-0.2169,0.1795,-0.1221
16654,-0.1159,0.0063,-0.9929,-0.2627,0.3016,-0.1679
16664,-0.1132,-0.0001,-0.9968,-0.1711,0.4543,-0.0610
16674,-0.1125,0.0016,-0.9910,0.1495,0.3627,-0.1984
16684,-0.1142,0.0021,-0.9941,0.5465,0.2711,-0.2289
16694,-0.1095,0.0053,-0.9958,1.2335,0.0573,-0.4885
16704,-0.1068,0.0090,-0.9992,2.1037,-0.3244,-1.0992
16714,-0.1184,0.0092,-1.0115,2.3327,-0.4923,-1.2213
16724,-0.1213,0.0016,-1.0232,1.5236,-0.3549,-0.8702
16734,-0.1184,0.0019,-1.0053,0.5007,-0.2327,-0.0305
16744,-0.1152,0.0019,-0.9949,-0.0184,-0.0190,0.5955
16754,-0.1115,0.0016,-0.9903,0.0579,0.0115,0.6566
16764,-0.1083,0.0014,-0.9890,0.9434,0.0268,0.3360
16774,-0.1098,0.0063,-1.0014,1.7373,-0.2938,-0.0763
16784,-0.1078,0.0031,-0.9987,2.4396,-0.5228,-0.4579
16794,-0.1176,0.0077,-1.0178,2.6992,-0.6602,-0.8854
16804,-0.1225,-0.0020,-1.0212,1.6610,-0.4160,-0.7327
16814,-0.1188,0.0038,-1.0171,-0.0184,0.1489,-0.1984
16824,-0.1152,0.0011,-1.0053,-1.5909,0.6680,0.2902
16834,-0.1157,-0.0003,-0.9973,-2.0031,0.8207,0.3207
16844,-0.1142,-0.0015,-0.9956,-1.8657,0.6375,0.2749
16854,-0.1090,0.0043,-0.9953,-1.2703,0.4543,0.2444
16864,-0.1044,0.0055,-0.9820,-0.3695,0.1184,-0.0610
16874,-0.1159,0.0082,-1.0043,0.5465,-0.0648,-0.3511
16884,-0.1132,0.0065,-1.0057,0.7144,0.0421,-0.2595
16894,-0.1090,0.0033,-1.0099,0.4854,0.1184,-0.1068
16904,-0.1122,0.0036,-1.0084,0.1648,0.0421,0.0611
16914,-0.1147,-0.0025,-0.9980,-0.1100,-0.0343,0.1527
16924,-0.1073,-0.0006,-1.0036,0.0427,-0.0801,0.1680
16934,-0.1127,0.0024,-1.0026,0.3175,-0.1564,0.0306
16944,-0.1100,0.0075,-0.9970,0.6686,-0.0801,-0.1526
16954,-0.1095,0.0046,-1.0050,1.0045,0.0115,-0.3358
16964,-0.1132,0.0019,-1.0038,1.2182,0.1184,-0.5648
16974,-0.1159,0.0014,-1.0082,0.9587,0.1489,-0.5801
16984,-0.1188,-0.0037,-1.0084,0.6839,0.1184,-0.3663
16994,-0.1191,0.0021,-1.0007,0.2411,0.0115,0.0611
17004,-0.1196,-0.0032,-1.0007,-0.1405,-0.0801,0.1833
17014,-0.1122,0.0002,-1.0062,-0.5069,-0.1869,0.3970
17024,-0.1085,0.0038,-0.9982,-0.7512,-0.1106,0.3360
17034,-0.1098,-0.0003,-1.0028,-0.6596,-0.1411,0.1833
17044,-0.1142,0.0055,-1.0079,-0.4917,-0.2785,0.0001
17054,-0.1100,0.0036,-1.0043,-0.4459,-0.4312,-0.0763
17064,-0.1125,0.0029,-1.0050,-0.4153,-0.3091,0.0306
17074,-0.1164,-0.0028,-1.0099,-0.6749,-0.2633,0.0764
17084,-0.1122,-0.0037,-1.0002,-0.9192,-0.1869,0.3207
17094,-0.1112,-0.0008,-0.9922,-0.7054,-0.2022,0.4276
17104,-0.1127,0.0043,-0.9995,-0.0642,-0.3091,0.2902
17114,-0.1093,-0.0001,-0.9985,0.2564,-0.2480,0.2596
17124,-0.1022,0.0092,-0.9987,0.3938,-0.1717,0.1985
17134,-0.1115,0.0048,-1.0096,0.5770,-0.0801,-0.1526
17144,-0.1159,0.0073,-1.0074,0.5923,-0.0648,-0.2137
17154,-0.1152,0.0029,-1.0060,0.2411,-0.2327,-0.1221
17164,-0.1179,0.0002,-1.0043,-0.2932,-0.3091,0.0764
17174,-0.1181,0.0033,-0.9970,-0.9039,-0.1564,0.3207
17184,-0.1105,-0.0015,-0.9946,-1.0566,-0.0495,0.4581
17194,-0.1063,0.0024,-0.9907,-0.6596,0.0573,0.1527
17204,-0.1127,0.0058,-0.9927,0.0579,0.1184,-0.1373
17214,-0.1117,0.0063,-1.0011,0.4702,0.1489,-0.1831
17224,-0.1117,0.0019,-1.0115,0.7144,0.0421,-0.1831
17234,-0.1115,0.0043,-1.0074,0.5465,-0.1259,-0.1984
17244,-0.1103,0.0007,-1.0065,0.4091,-0.2022,-0.3205
17254,-0.1061,-0.0010,-1.0060,0.2259,-0.2175,-0.2289
17264,-0.1120,-0.0010,-0.9968,-0.0795,-0.0801,-0.0763
17274,-0.1117,-0.0013,-0.9968,-0.0642,0.1795,0.0611
17284,-0.1100,0.0070,-0.9920,0.1495,0.1642,-0.0305
17294,-0.1090,0.0021,-1.0011,0.6381,0.1337,-0.2442
17304,-0.1122,0.0004,-1.0043,1.1114,-0.2175,-0.4274
17314,-0.1152,0.0033,-1.0108,1.1114,-0.5381,-0.4274
17324,-0.1164,-0.0003,-1.0147,0.5618,-0.4770,-0.2137
17334,-0.1218,0.0002,-1.0157,-0.2932,-0.4465,0.1222
17344,-0.1176,-0.0003,-1.0019,-1.1176,-0.2785,0.3512
17354,-0.1164,0.0033,-0.9985,-1.7131,-0.1717,0.4886
17364,-0.1115,0.0021,-0.9934,-1.7131,-0.1259,0.5344
17374,-0.1085,0.0075,-0.9946,-1.1787,-0.1106,0.3818
17384,-0.1108,0.0080,-0.9985,-0.5985,-0.0495,0.0306
17394,-0.1066,0.0033,-1.0045,-0.1711,0.0421,-0.1221
17404,-0.1071,0.0060,-0.9978,0.0274,0.1642,-0.2595
17414,-0.1127,-0.0018,-1.0103,-0.3085,0.1947,-0.2595
17424,-0.1191,0.0033,-0.9995,-0.6444,0.3321,-0.0763
17434,-0.1142,0.0009,-1.0007,-0.9344,0.3474,0.0153
17444,-0.1164,0.0007,-0.9949,-0.7818,0.3474,0.0306
17454,-0.1157,0.0029,-0.9987,-0.4764,0.3932,0.1985
17464,-0.1076,0.0033,-0.9893,0.2259,0.2711,0.0459
17474,-0.1041,0.0068,-1.0038,1.2030,0.0268,-0.1526
17484,-0.1088,0.0038,-1.0115,1.6152,-0.2785,-0.4274
17494,-0.1085,0.0058,-1.0161,1.4778,-0.6755,-0.3969
17504,-0.1125,0.0019,-1.0130,0.7297,-0.6602,-0.1679
17514,-0.1130,0.0024,-1.0086,-0.1711,-0.5076,-0.0152
17524,-0.1110,-0.0001,-1.0019,-0.8581,-0.1869,0.1069
17534,-0.1117,-0.0001,-0.9941,-1.1176,0.1489,0.2749
17544,-0.1122,-0.0006,-0.9939,-0.7818,0.2863,0.1222
17554,-0.1149,0.0014,-0.9912,-0.4917,0.2863,0.0153
17564,-0.1108,0.0090,-0.9946,0.0732,0.3169,-0.1221
17574,-0.1085,0.0063,-1.0014,0.4091,0.1795,-0.2747
17584,-0.1117,0.0068,-0.9990,0.6076,0.0573,-0.3969
17594,-0.1193,-0.0010,-1.0103,0.5923,-0.0190,-0.4732
17604,-0.1112,0.0021,-1.0099,0.0885,0.0421,-0.1831
17614,-0.1105,0.0031,-1.0019,-0.1558,-0.0648,-0.1373
17624,-0.1132,0.0021,-1.0028,-0.2321,-0.0648,-0.1984
17634,-0.1110,-0.0008,-1.0019,-0.4917,0.3169,-0.1068
17644,-0.1090,0.0053,-0.9929,-0.4764,0.5764,-0.1984
17654,-0.1083,0.0051,-0.9982,-0.1405,0.6680,-0.4732
17664,-0.1122,0.0021,-1.0065,0.1190,0.5611,-0.7175
17674,-0.1103,-0.0023,-1.0048,0.2259,0.2100,-0.6259
17684,-0.1130,0.0029,-1.0028,0.0121,-0.2633,-0.3358
17694,-0.1203,-0.0040,-1.0072,-0.4153,-0.5839,0.0611
17704,-0.1152,0.0019,-1.0154,-0.9192,-0.5686,0.3207
17714,-0.1154,0.0026,-1.0026,-1.5146,-0.3702,0.5802
17724,-0.1115,0.0014,-0.9963,-1.8199,-0.0953,0.6566
17734,-0.1081,0.0114,-0.9924,-1.4382,0.0726,0.5497
17744,-0.1066,0.0058,-0.9922,-0.6291,-0.1106,0.1833
17754,-0.1147,0.0058,-1.0130,-0.0184,-0.2480,-0.0915
17764,-0.1132,0.0065,-0.9956,-0.1711,-0.1869,-0.0305
17774,-0.1135,0.0077,-1.0036,-0.2779,-0.1106,0.0306
17784,-0.1228,-0.0010,-1.0096,-0.8276,0.0879,0.0306
17794,-0.1157,0.0026,-0.9883,-1.4230,0.4695,0.2596
17804,-0.1174,-0.0010,-1.0065,-1.0871,0.3321,0.3360
17814,-0.1186,0.0041,-1.0053,-0.9039,0.1642,0.4581
17824,-0.1012,0.0060,-0.9949,-0.6902,-0.1411,0.3665
17834,-0.1078,0.0060,-1.0004,-0.2932,-0.3396,0.0001
17844,-0.1103,0.0080,-1.0123,-0.1405,-0.2022,-0.2442
17854,-0.1125,0.0051,-1.0079,-0.6444,-0.0495,-0.1526
17864,-0.1100,0.0009,-0.9963,-0.9497,0.1642,0.1527
17874,-0.1135,0.0007,-0.9888,-0.5375,0.2100,0.1527
17884,-0.1117,-0.0001,-0.9859,0.2259,0.0268,0.2138
17894,-0.1225,0.0021,-0.9905,1.0045,-0.1564,-0.0457
17904,-0.1044,0.0116,-1.0065,1.5389,-0.2480,0.0611
17914,-0.1100,-0.0006,-1.0036,1.5236,-0.3549,-0.0152
17924,-0.1125,0.0168,-1.0166,1.4167,-0.1411,0.0611
17934,-0.1144,-0.0040,-0.9958,0.8060,0.1031,0.0153
17944,-0.1125,0.0048,-1.0016,0.8060,0.4848,0.1069
17954,-0.1137,0.0002,-0.9978,1.0045,0.5153,0.0764
17964,-0.1171,-0.0010,-1.0021,1.3709,0.4237,-0.0152
17974,-0.1130,0.0021,-1.0045,1.4778,0.0879,-0.0152
17984,-0.1179,0.0041,-1.0101,1.3404,-0.0953,-0.0915
17994,-0.1157,0.0075,-1.0106,0.9129,-0.1411,0.0001
18004,-0.1105,0.0092,-1.0079,0.4244,-0.0343,0.1833
18014,-0.1139,0.0060,-1.0106,-0.0947,0.0268,0.3207
18024,-0.1100,0.0048,-1.0019,-0.4306,-0.0953,0.4581
18034,-0.1061,0.0053,-1.0007,-0.4917,-0.2175,0.6260
18044,-0.1120,0.0014,-1.0079,-0.2779,-0.3091,0.3665
18054,-0.1154,-0.0018,-1.0091,-0.2321,-0.2480,0.2138
18064,-0.1179,-0.0015,-1.0072,-0.7207,0.0879,0.2902
18074,-0.1088,0.0004,-1.0021,-1.0413,0.2405,0.4276
18084,-0.1147,0.0080,-1.0077,-1.2856,0.2100,0.5192
18094,-0.1122,0.0043,-1.0002,-1.6062,0.1642,0.6718
18104,-0.1078,0.0055,-0.9975,-1.3008,-0.0953,0.7787
18114,-0.1085,0.0014,-1.0043,-0.9039,-0.4160,0.4886
18124,-0.1137,0.0041,-0.9949,-0.7665,-0.5228,0.3054
18134,-0.1120,0.0007,-0.9980,-0.8123,-0.4923,0.2749
18144,-0.1196,0.0026,-1.0016,-0.7970,-0.3702,0.0611
18154,-0.1184,0.0033,-1.0108,-1.0566,-0.1411,0.1069
18164,-0.1073,0.0031,-1.0055,-1.4688,0.0879,0.4123
18174,-0.1088,0.0073,-0.9946,-1.4688,0.2100,0.4428
18184,-0.1041,0.0112,-0.9961,-1.1787,0.2100,0.3360
18194,-0.1117,0.0065,-1.0019,-0.7970,0.0421,0.1527
18204,-0.1132,0.0068,-1.0033,-0.3543,0.0573,0.0306
18214,-0.1161,0.0048,-1.0031,-0.2321,0.1795,0.1375
18224,-0.1127,0.0060,-0.9956,0.0121,0.5459,0.1222
18234,-0.1161,0.0051,-0.9987,0.3938,0.6069,0.1069
18244,-0.1049,0.0097,-0.9907,0.8824,0.4848,0.0459
18254,-0.1081,0.0051,-0.9949,1.7373,0.1642,-0.1831
18264,-0.1159,0.0031,-1.0016,2.8060,-0.1106,-0.7175
18274,-0.1093,0.0073,-1.0057,3.3251,-0.3244,-1.0076
18284,-0.1179,0.0016,-1.0096,3.0656,-0.4312,-1.0381
18294,-0.1188,-0.0003,-1.0137,2.2259,-0.3091,-0.7327
18304,-0.1135,0.0033,-1.0171,1.1114,-0.0495,-0.2747
18314,-0.1122,-0.0057,-1.0077,0.5465,-0.0037,0.0459
18324,-0.1174,0.0099,-1.0132,0.0732,0.1031,-0.0152
18334,-0.1108,-0.0079,-1.0036,-0.5680,0.1031,0.1680
18344,-0.1085,0.0029,-1.0142,-0.9344,0.1489,0.3818
18354,-0.1105,0.0048,-0.9990,-1.2245,0.2863,0.4428
18364,-0.1054,0.0055,-0.9936,-1.1024,0.3321,0.3665
18374,-0.1058,0.0051,-1.0094,-0.5069,0.2558,0.0611
18384,-0.1154,0.0041,-1.0038,-0.1711,0.0115,0.0611
18394,-0.1100,0.0009,-1.0040,0.2564,-0.4160,0.0917
18404,-0.1132,0.0033,-1.0067,0.3785,-0.7824,-0.0305
18414,-0.1157,0.0014,-0.9975,0.2564,-0.8892,0.0153
18424,-0.1139,0.0060,-1.0065,0.1953,-0.6450,0.1222
18434,-0.1186,-0.0018,-0.9823,-0.1558,-0.1259,0.2291
18444,-0.1164,0.0092,-0.9992,0.1343,0.0115,-0.0152
18454,-0.1157,-0.0008,-0.9985,0.3175,-0.0343,-0.0610
18464,-0.1120,0.0092,-1.0038,0.3633,-0.0953,0.0153
18474,-0.1110,0.0004,-1.0011,0.3327,-0.1564,-0.1221
18484,-0.1152,0.0041,-1.0053,-0.0795,-0.0343,-0.1679
18494,-0.1152,0.0146,-1.0111,-0.5069,0.3016,-0.1068
18504,-0.1208,-0.0096,-0.9927,-1.0108,0.5917,0.0153
18514,-0.1081,0.0099,-1.0079,-0.9039,0.7138,0.0153
18524,-0.1132,0.0009,-0.9980,-0.8886,0.7138,-0.1526
18534,-0.1085,0.0041,-0.9973,-0.5069,0.6375,-0.0915
18544,-0.1068,0.0026,-0.9893,0.0885,0.4390,-0.1526
18554,-0.1166,0.0075,-1.0062,0.8366,0.1184,-0.4121
18564,-0.1184,0.0026,-1.0164,0.7450,-0.0648,-0.3969
18574,-0.1122,-0.0008,-1.0082,0.1190,-0.0953,-0.0152
18584,-0.1181,-0.0032,-0.9999,-0.2321,-0.4618,0.2138
18594,-0.1139,0.0019,-0.9999,-0.4153,-0.4618,0.4734
18604,-0.1095,0.0011,-0.9893,-0.3848,-0.5686,0.5955
18614,-0.1083,0.0048,-1.0026,0.0427,-0.5686,0.4123
