timestamp_ms,ax,ay,az,gx,gy,gz
3964,0.0065,0.0148,0.9977,0.0606,0.0488,-0.0639
3974,0.0099,0.0136,0.9946,0.0453,0.0335,-0.0792
3984,0.0070,0.0160,0.9956,0.0606,0.0182,-0.0639
3994,0.0099,0.0143,0.9953,0.0148,0.0640,0.0277
4004,0.0065,0.0148,0.9965,0.0453,-0.0123,0.0430
4014,0.0077,0.0138,0.9985,-0.0005,0.0030,-0.0028
4024,0.0055,0.0063,0.9992,-0.0463,0.0182,-0.0639
4034,0.0070,0.0043,0.9944,0.0148,0.0488,-0.0334
4044,0.0023,0.0102,1.0014,0.0301,0.0182,0.0582
4054,0.0045,0.0104,1.0023,0.0301,0.0640,0.0124
4064,0.0070,0.0146,1.0016,0.0453,-0.0123,-0.0639
4074,0.0048,0.0097,0.9970,0.0453,0.0182,0.0124
4084,0.0038,0.0143,0.9982,-0.0463,-0.0581,-0.0028
4094,0.0048,0.0136,0.9963,-0.0463,-0.0886,0.0582
4104,0.0038,0.0136,0.9970,-0.1073,-0.0276,0.0430
4114,0.0048,0.0107,1.0018,-0.0768,-0.0581,-0.0028
4124,0.0050,0.0121,1.0026,-0.0463,-0.0123,0.0124
4134,0.0060,0.0116,0.9999,-0.0157,0.0335,-0.0639
4144,0.0038,0.0119,1.0009,-0.0615,0.0640,0.0277
4154,0.0080,0.0141,1.0004,-0.0463,-0.0428,-0.0639
4164,0.0067,0.0097,0.9975,-0.0768,-0.0581,-0.0486
4174,0.0107,0.0099,0.9963,0.0606,-0.0123,-0.0028
4184,0.0040,0.0077,1.0004,-0.0310,0.0335,-0.0028
4194,0.0043,0.0107,1.0028,0.1064,0.0793,0.0277
4204,0.0028,0.0104,1.0028,0.1064,0.0640,0.0430
4214,0.0023,0.0116,0.9997,0.0759,0.0488,0.0430
4224,0.0055,0.0109,0.9946,-0.0310,0.0335,-0.0181
4234,0.0055,0.0131,1.0016,0.0759,0.0640,-0.1250
4244,0.0053,0.0170,0.9944,0.0453,0.0030,0.0277
4254,0.0035,0.0107,1.0018,-0.0921,-0.0428,-0.0334
4264,0.0038,0.0138,1.0004,-0.0310,0.0488,0.0430
4274,0.0045,0.0146,0.9936,-0.0157,-0.0123,-0.0028
4284,0.0048,0.0134,1.0031,-0.0157,-0.0581,-0.0639
4294,0.0055,0.0134,1.0038,-0.0463,-0.0428,-0.0181
4304,0.0094,0.0143,0.9975,-0.0310,-0.0276,0.0124
4314,0.0075,0.0112,0.9953,-0.0615,0.0030,-0.0639
4324,0.0062,0.0138,0.9939,-0.0005,0.0488,-0.0486
4334,0.0077,0.0155,0.9982,-0.0005,-0.0123,-0.0334
4344,0.0067,0.0109,0.9948,-0.0615,-0.0581,-0.0181
4354,0.0082,0.0129,1.0023,-0.0463,-0.0123,0.1040
4364,0.0065,0.0126,0.9960,-0.0005,0.0030,0.0430
4374,0.0070,0.0116,0.9931,-0.0005,0.0335,0.0582
4384,0.0030,0.0109,0.9965,-0.0005,0.1098,0.0430
4394,0.0070,0.0131,0.9999,-0.0463,0.0488,-0.0334
4404,0.0104,0.0112,0.9936,0.0453,0.0640,0.0430
4414,0.0141,0.0116,1.0028,-0.0157,-0.0276,0.0430
4424,0.0080,0.0160,0.9970,-0.0310,-0.0734,-0.0486
4434,0.0075,0.0129,1.0018,0.0148,-0.0581,0.0430
4444,0.0038,0.0134,0.9927,-0.0157,-0.0581,-0.0028
4454,0.0057,0.0112,1.0018,0.0148,0.0030,0.0124
4464,0.0053,0.0107,1.0011,-0.0768,0.0335,-0.0181
4474,0.0087,0.0138,1.0002,-0.0615,0.0640,-0.0639
4484,0.0080,0.0102,0.9970,-0.0310,-0.0123,0.0888
4494,0.0048,0.0119,1.0011,0.0148,0.0640,0.0124
4504,0.0077,0.0124,1.0035,0.0911,-0.0581,0.0582
4514,0.0065,0.0087,1.0028,0.0606,0.0335,-0.0486
4524,0.0053,0.0131,1.0002,0.0606,0.0640,0.0430
4534,0.0050,0.0092,0.9994,0.0606,-0.0581,-0.0181
4544,0.0067,0.0160,0.9946,-0.0157,-0.0581,0.0430
4554,0.0200,0.0092,1.0086,-0.0768,-0.0428,0.0582
4564,0.0097,0.0138,1.0014,-0.0005,-0.0123,0.0124
4574,0.0158,0.0094,1.0072,-0.0310,0.0488,-0.0028
4584,0.0077,0.0170,1.0016,-0.0310,0.0640,0.0430
4594,0.0055,0.0129,0.9999,-0.0157,0.0335,-0.0486
4604,0.0040,0.0136,0.9936,-0.0157,0.1098,-0.0486
4614,0.0062,0.0099,1.0016,-0.0005,0.1251,-0.0486
4624,0.0023,0.0112,1.0004,0.0301,0.0793,-0.0028
4634,0.0075,0.0092,1.0023,0.0301,0.0640,0.0735
4644,0.0050,0.0104,0.9989,0.0606,0.0335,0.0124
4654,0.0089,0.0138,0.9994,0.0911,0.0488,0.0277
4664,0.0060,0.0146,0.9992,0.0606,0.0640,0.0124
4674,0.0067,0.0136,0.9987,0.0759,0.0488,0.0735
4684,0.0075,0.0107,0.9975,-0.0157,0.0030,-0.0028
4694,0.0087,0.0146,0.9965,0.0759,-0.0581,0.0277
4704,0.0030,0.0138,0.9958,0.0759,-0.0276,-0.0639
4714,0.0030,0.0160,0.9997,-0.0005,-0.0276,-0.0181
4724,0.0062,0.0136,0.9997,0.0148,-0.1039,0.0582
4734,0.0053,0.0124,0.9963,-0.0768,-0.1039,-0.0028
4744,0.0038,0.0129,0.9885,-0.0310,-0.0886,-0.0486
4754,0.0053,0.0080,0.9956,-0.0768,0.0030,-0.0334
4764,0.0048,0.0116,1.0011,0.0911,0.0182,-0.0028
4774,0.0067,0.0099,1.0016,0.1217,0.0793,0.0124
4784,0.0067,0.0080,0.9931,0.0759,-0.0123,0.0735
4794,0.0116,0.0090,0.9958,-0.0615,0.0640,0.0124
4804,0.0094,0.0082,0.9965,0.0301,0.0335,-0.0486
4814,0.0077,0.0116,0.9968,-0.0005,0.0335,0.0277
4824,0.0067,0.0134,1.0018,-0.0310,0.0335,0.0277
4834,0.0077,0.0107,0.9989,-0.0005,0.0030,0.0430
4844,0.0072,0.0097,1.0004,0.0606,0.0182,0.0888
4854,0.0062,0.0121,0.9975,0.0301,0.0182,-0.0028
4864,0.0016,0.0121,1.0016,-0.0310,0.0640,-0.0792
4874,0.0011,0.0099,0.9987,-0.0310,0.0946,-0.1097
4884,0.0057,0.0109,0.9975,-0.0921,0.0946,-0.0792
4894,0.0065,0.0077,1.0026,-0.0310,0.0182,-0.0486
4904,0.0055,0.0102,1.0014,0.0301,0.0030,-0.0181
4914,0.0050,0.0102,0.9989,0.0148,0.0182,0.0277
4924,0.0048,0.0094,1.0043,0.0453,0.0335,-0.0181
4934,0.0013,0.0146,0.9970,-0.0005,0.0946,0.0430
4944,0.0062,0.0138,0.9968,-0.0005,0.0793,-0.0944
4954,0.0035,0.0126,0.9977,-0.0463,-0.0581,0.0277
4964,0.0107,0.0102,0.9970,0.0301,-0.0276,-0.0334
4974,0.0067,0.0124,0.9956,-0.0310,0.0030,0.0277
4984,0.0080,0.0138,0.9939,-0.0005,0.0488,-0.0486
4994,0.0060,0.0097,0.9985,-0.0005,0.1098,-0.0181
5004,0.0131,0.0114,0.9968,0.0301,0.0946,0.0277
5014,0.0035,0.0148,0.9977,0.1369,0.1251,0.0430
5024,0.0077,0.0094,1.0035,0.0453,0.0793,0.0735
5034,0.0131,0.0099,1.0021,0.0453,-0.0428,0.0735
5044,0.0089,0.0097,1.0002,0.0148,-0.0276,0.0124
5054,0.0050,0.0102,0.9975,0.0453,-0.0581,-0.0181
5064,0.0055,0.0148,0.9975,0.0301,-0.0428,0.0124
5074,0.0053,0.0136,1.0006,-0.0463,-0.0886,0.1040
5084,0.0033,0.0107,0.9997,-0.0005,-0.1497,0.0735
5094,0.0018,0.0141,1.0028,-0.0310,0.0182,0.0735
5104,0.0080,0.0131,0.9960,0.0453,0.0335,0.0582
5114,0.0011,0.0092,1.0021,-0.0005,-0.0428,-0.0181
5124,0.0065,0.0094,1.0014,0.0148,-0.0734,-0.0486
5134,0.0072,0.0124,0.9985,0.1217,-0.0428,-0.0181
5144,0.0111,0.0163,1.0038,0.0606,0.0182,0.0124
5154,0.0070,0.0134,1.0006,-0.0157,-0.0581,-0.0792
5164,0.0087,0.0112,0.9982,-0.0310,-0.0123,-0.0639
5174,0.0040,0.0114,0.9975,0.0453,0.0335,-0.0334
5184,0.0084,0.0146,0.9982,-0.0005,0.0182,-0.0486
5194,0.0060,0.0126,0.9980,-0.0921,0.0335,-0.0028
5204,0.0075,0.0097,1.0011,-0.0005,0.0946,-0.0792
5214,0.0087,0.0060,0.9975,0.0453,0.0335,-0.0486
5224,0.0062,0.0114,0.9934,0.0301,0.0335,0.0124
5234,0.0072,0.0116,0.9871,0.1522,0.0335,0.0430
5244,0.0021,0.0138,0.9980,0.0148,0.1098,-0.0181
5254,0.0013,0.0119,1.0014,0.0453,0.0793,-0.0334
5264,0.0060,0.0131,1.0002,-0.0005,0.0335,-0.0181
5274,0.0038,0.0114,0.9975,0.0148,-0.0734,0.0124
5284,0.0089,0.0119,0.9994,0.0911,-0.0734,-0.0028
5294,0.0030,0.0155,0.9982,0.0606,-0.0428,0.0124
5304,0.0038,0.0109,0.9985,0.0453,0.0335,0.0582
5314,0.0084,0.0116,0.9941,0.0148,-0.0276,-0.0334
5324,0.0111,0.0143,0.9968,-0.0310,-0.0276,-0.0181
5334,0.0092,0.0143,1.0026,-0.0463,0.0640,0.0124
5344,0.0087,0.0094,0.9973,0.0301,-0.0276,-0.0792
5354,0.0065,0.0094,0.9968,0.0301,0.0488,-0.0028
5364,0.0033,0.0085,0.9973,-0.0157,0.0488,0.0888
5374,0.0011,0.0129,0.9994,-0.0005,-0.0428,0.0430
5384,0.0092,0.0126,0.9989,-0.0157,-0.0581,0.0430
5394,0.0055,0.0097,1.0011,0.0453,0.0030,-0.0181
5404,0.0094,0.0107,0.9985,0.0911,-0.0276,-0.0181
5414,0.0048,0.0187,0.9992,0.0453,0.0182,-0.0486
5424,0.0094,0.0114,0.9994,0.0606,0.0030,0.0124
5434,0.0062,0.0119,0.9999,0.0148,0.0488,0.0277
5444,0.0077,0.0119,0.9948,-0.0157,0.0030,-0.0334
5454,0.0092,0.0090,0.9958,-0.0615,0.0335,-0.0181
5464,0.0048,0.0129,0.9960,-0.0921,0.0946,0.0124
5474,0.0087,0.0119,0.9985,-0.0310,-0.0123,0.0582
5484,0.0107,0.0102,0.9999,-0.0615,-0.0123,-0.0028
5494,0.0116,0.0131,0.9987,0.0148,-0.0276,-0.0028
5504,0.0082,0.0153,0.9963,0.0301,-0.0276,-0.0028
5514,0.0075,0.0136,1.0009,0.0148,-0.0886,0.0277
5524,0.0075,0.0136,1.0006,-0.0157,-0.0428,0.0430
5534,0.0026,0.0119,0.9999,0.0301,-0.0581,0.0124
5544,0.0053,0.0197,0.9999,0.0453,-0.0734,0.0124
5554,0.0072,0.0141,0.9946,0.0301,-0.0276,0.1040
5564,0.0082,0.0109,0.9973,0.0759,-0.0886,0.1346
5574,0.0040,0.0112,0.9934,0.0911,0.0030,0.0277
5584,0.0055,0.0090,1.0026,-0.0005,0.1251,-0.0028
5594,0.0055,0.0104,0.9944,-0.0310,-0.0123,-0.0486
5604,0.0057,0.0131,0.9975,-0.0157,0.0030,-0.0486
5614,0.0035,0.0087,1.0031,0.0148,-0.0886,0.0277
5624,0.0072,0.0114,0.9982,-0.0157,-0.0276,0.0277
5634,0.0075,0.0097,0.9999,-0.0463,-0.0886,-0.0181
5644,0.0062,0.0131,0.9985,-0.0005,-0.0123,-0.0334
5654,0.0082,0.0099,0.9968,-0.0157,-0.0276,0.0124
5664,0.0111,0.0116,0.9999,0.0453,0.0335,-0.0028
5674,0.0070,0.0109,0.9985,0.0453,0.0488,0.0124
5684,0.0072,0.0114,0.9934,-0.0005,-0.0276,-0.0334
5694,0.0060,0.0112,1.0006,0.0453,-0.0428,0.0277
5704,0.0077,0.0075,1.0045,0.1217,0.0946,0.0430
5714,0.0045,0.0182,0.9985,0.0606,0.1098,0.0124
5724,0.0062,0.0119,1.0093,0.0606,0.0793,0.0430
5734,0.0092,0.0126,0.9970,0.0301,0.1251,-0.0334
5744,0.0072,0.0114,0.9968,-0.0005,0.0488,0.0124
5754,0.0028,0.0151,0.9963,-0.0005,0.0335,0.0735
5764,0.0035,0.0148,0.9992,-0.0463,0.0030,-0.1097
5774,0.0021,0.0160,0.9956,-0.0463,-0.0123,-0.0334
5784,0.0067,0.0129,0.9895,0.0148,-0.0581,-0.0028
5794,0.0092,0.0126,0.9992,0.0453,-0.0428,0.0124
5804,0.0075,0.0094,1.0011,0.0148,-0.0123,0.0124
5814,0.0072,0.0094,0.9977,-0.0310,-0.0123,-0.0334
5824,0.0053,0.0087,1.0052,-0.0768,-0.0276,-0.0028
5834,0.0057,0.0138,1.0004,-0.0921,-0.0581,-0.0181
5844,0.0045,0.0119,1.0018,-0.0921,0.0030,0.0582
5854,0.0089,0.0126,0.9960,-0.0157,-0.0428,-0.0181
5864,0.0035,0.0114,1.0011,-0.0157,0.0335,-0.0639
5874,0.0062,0.0129,1.0021,-0.0768,0.0182,-0.0181
5884,0.0089,0.0116,1.0009,0.0759,-0.0428,-0.0028
5894,0.0082,0.0087,1.0035,0.0453,0.0488,-0.0028
5904,0.0082,0.0129,0.9989,0.0148,0.0182,0.0582
5914,0.0075,0.0112,1.0048,0.0301,0.0335,0.0277
5924,0.0030,0.0131,0.9999,0.0148,0.0488,0.0430
5934,0.0028,0.0141,1.0026,0.0301,0.0640,-0.0486
5944,0.0148,0.0102,1.0040,0.0453,0.0793,0.0124
5954,-0.0006,0.0119,1.0040,-0.0768,0.0488,0.0124
5964,0.0089,0.0141,0.9980,-0.0005,-0.0581,0.0277
5974,0.0018,0.0155,0.9980,0.0148,-0.0276,0.0124
5984,0.0038,0.0119,0.9944,-0.0157,0.0640,0.0582
5994,0.0043,0.0155,0.9987,-0.0310,0.0488,0.0277
6004,0.0084,0.0102,0.9975,-0.0005,0.0488,0.0124
6014,0.0053,0.0107,1.0031,-0.0157,-0.0123,0.0888
6024,0.0062,0.0104,1.0038,-0.1226,0.0030,-0.0028
6034,0.0053,0.0112,0.9989,-0.0921,-0.1039,0.0277
6044,0.0040,0.0126,1.0021,-0.1379,-0.0123,0.0430
6054,0.0045,0.0116,0.9989,0.0301,0.0030,-0.0028
6064,0.0111,0.0143,0.9924,-0.0310,0.0488,0.0430
6074,0.0111,0.0121,0.9960,-0.0768,0.0182,0.0888
6084,0.0028,0.0092,0.9985,0.0301,0.0488,0.0582
6094,0.0043,0.0104,1.0028,-0.0310,0.0335,0.0124
6104,0.0065,0.0097,1.0026,-0.0921,0.0488,0.0124
6114,0.0043,0.0134,0.9994,-0.0768,0.0793,0.0277
6124,0.0060,0.0134,0.9997,0.0301,0.0793,-0.0334
6134,0.0023,0.0165,1.0023,-0.0157,0.0946,-0.0181
6144,0.0043,0.0119,1.0023,0.0301,0.0030,-0.0181
6154,0.0082,0.0109,0.9994,0.0301,0.0182,-0.0181
6164,0.0082,0.0065,1.0004,-0.0005,0.0640,0.0277
6174,0.0043,0.0124,1.0002,-0.1073,0.0793,-0.0334
6184,0.0065,0.0109,1.0021,-0.0768,0.0640,0.0430
6194,0.0124,0.0155,0.9982,-0.0463,0.0640,0.0582
6204,0.0084,0.0094,0.9956,0.0606,0.0335,0.0582
6214,0.0094,0.0124,0.9946,0.0301,0.0030,0.0582
6224,0.0107,0.0073,0.9939,0.1064,0.0182,0.0735
6234,0.0087,0.0092,0.9992,0.0759,0.0488,0.0277
6244,0.0060,0.0092,0.9970,0.0301,0.0030,0.0124
6254,0.0062,0.0124,0.9934,-0.0005,-0.0123,0.0277
6264,0.0040,0.0124,0.9992,-0.0157,-0.0123,-0.0181
6274,0.0048,0.0131,0.9977,-0.0157,0.0488,0.0735
6284,0.0067,0.0116,1.0060,-0.0157,0.0182,0.0124
6294,0.0050,0.0148,1.0028,-0.0310,0.0488,0.1040
6304,0.0030,0.0119,0.9987,-0.0005,0.0946,-0.0181
6314,0.0067,0.0114,0.9994,-0.0157,0.0030,-0.0028
6324,0.0053,0.0136,0.9953,-0.0310,0.0030,-0.1097
6334,0.0084,0.0112,1.0002,-0.0463,0.0182,-0.0792
6344,0.0060,0.0102,1.0023,0.0148,-0.0734,-0.0028
6354,0.0035,0.0163,0.9965,0.0911,-0.0123,0.0277
6364,0.0028,0.0136,1.0009,0.0453,-0.0734,-0.0028
6374,0.0075,0.0116,0.9989,0.0148,-0.0581,-0.0181
6384,0.0077,0.0153,1.0033,0.0148,-0.1497,0.0735
6394,0.0067,0.0092,1.0002,-0.0005,-0.0581,0.0124
6404,0.0102,0.0107,1.0002,-0.0005,-0.0886,-0.0181
6414,0.0084,0.0112,0.9965,-0.0310,-0.0428,-0.0639
6424,0.0089,0.0116,0.9992,-0.0310,0.0488,0.0430
6434,0.0016,0.0129,0.9987,0.0301,0.0030,-0.0181
6444,0.0030,0.0094,1.0023,0.0148,-0.0123,-0.0028
6454,0.0114,0.0134,0.9980,-0.0005,0.0335,0.0124
6464,0.0084,0.0055,0.9975,-0.0615,-0.0276,0.0124
6474,0.0038,0.0085,1.0035,0.0759,0.0335,0.0124
6484,0.0082,0.0138,0.9953,0.0148,0.0946,0.0888
6494,0.0065,0.0148,0.9985,0.0606,0.1098,0.1040
6504,0.0030,0.0114,0.9999,0.0301,0.1098,-0.0181
6514,0.0040,0.0153,0.9929,0.0453,0.1251,0.0277
6524,0.0035,0.0119,1.0002,-0.0310,0.0030,0.0430
6534,0.0045,0.0153,1.0016,-0.0768,-0.1039,0.0277
6544,0.0057,0.0148,0.9968,-0.0310,0.0182,-0.0028
6554,0.0060,0.0160,1.0018,-0.0463,0.0335,0.0277
6564,0.0023,0.0136,0.9977,-0.1073,-0.0123,-0.0334
6574,0.0057,0.0119,1.0103,0.0148,-0.0581,-0.0334
6584,0.0075,0.0080,0.9934,-0.0463,0.0182,0.0124
6594,0.0084,0.0085,1.0009,-0.0463,0.0182,0.0124
6604,0.0045,0.0097,1.0004,-0.0615,0.0488,0.0277
6614,0.0077,0.0116,0.9997,0.0148,0.0182,0.0430
6624,0.0060,0.0129,0.9994,0.0148,-0.0123,-0.0334
6634,0.0092,0.0104,0.9968,0.0759,-0.0123,0.0582
6644,0.0087,0.0180,0.9980,0.0453,0.0182,0.0124
6654,0.0057,0.0134,1.0016,0.0453,0.0640,0.0735
6664,0.0023,0.0136,0.9977,-0.0463,-0.0428,0.0735
6674,0.0028,0.0138,1.0043,0.0301,0.0335,0.0277
6684,0.0026,0.0136,1.0021,0.0148,-0.0276,-0.0028
6694,0.0048,0.0129,0.9939,0.0606,0.0030,-0.0334
6704,0.0006,0.0134,0.9973,-0.0463,-0.0123,0.0277
6714,0.0038,0.0097,0.9946,0.0148,0.0640,0.0277
6724,0.0033,0.0129,0.9944,0.0148,0.1251,0.0277
6734,0.0033,0.0094,1.0028,-0.0157,0.0030,-0.0334
6744,0.0055,0.0090,0.9982,-0.0463,-0.1039,-0.0181
6754,0.0057,0.0082,0.9956,-0.0615,-0.0276,-0.0181
6764,0.0067,0.0131,1.0014,-0.0310,-0.0428,0.0582
6774,0.0060,0.0134,0.9948,0.0148,-0.0428,0.0277
6784,0.0060,0.0087,0.9992,-0.0310,-0.0428,0.0124
6794,0.0065,0.0114,1.0031,-0.0310,-0.0276,-0.0028
6804,0.0070,0.0090,1.0038,0.0148,-0.0123,0.0430
6814,0.0043,0.0097,1.0006,-0.0157,0.0335,0.0430
6824,0.0099,0.0119,1.0011,0.0148,-0.0276,0.0582
6834,0.0089,0.0107,1.0045,0.0911,0.0488,-0.0028
6844,0.0026,0.0116,0.9987,-0.0157,0.0488,0.0582
6854,0.0038,0.0136,0.9987,-0.0310,-0.0123,0.1193
6864,0.0087,0.0114,0.9999,-0.0157,0.0793,-0.0334
6874,0.0099,0.0104,0.9999,-0.1073,0.0335,0.0582
6884,0.0026,0.0146,1.0023,-0.0463,0.0182,0.0735
6894,0.0053,0.0121,1.0035,-0.0768,0.0182,-0.0334
6904,0.0060,0.0155,1.0033,-0.0463,0.0946,-0.0639
6914,0.0035,0.0094,0.9975,-0.0157,0.0488,-0.0334
6924,0.0043,0.0114,1.0009,0.0301,0.0182,0.0124
6934,0.0082,0.0129,0.9922,-0.0310,0.0182,0.0582
6944,0.0072,0.0099,0.9977,-0.0005,-0.0123,0.0430
6954,0.0065,0.0085,1.0006,0.0148,-0.0581,0.0582
6964,0.0030,0.0124,0.9992,-0.0310,-0.0428,0.0277
6974,0.0072,0.0119,1.0026,0.0301,-0.0581,0.0430
6984,0.0062,0.0121,0.9973,-0.0005,0.0182,0.0124
6994,0.0057,0.0146,0.9931,-0.0157,-0.0276,0.0277
7004,0.0055,0.0173,1.0016,-0.0615,0.0793,0.1040
7014,0.0080,0.0116,0.9997,-0.0005,0.0182,-0.0028
7024,0.0057,0.0112,0.9982,-0.0768,0.0030,-0.0334
7034,0.0067,0.0114,0.9977,-0.0768,0.0793,0.0430
7044,0.0038,0.0107,0.9985,0.0759,0.1251,0.0124
7054,0.0082,0.0107,0.9985,0.0453,0.0793,0.0277
7064,0.0043,0.0143,1.0031,-0.0157,0.0640,0.0582
7074,0.0045,0.0114,0.9977,0.1064,-0.0428,0.0430
7084,0.0043,0.0121,0.9994,-0.0005,0.0335,0.0277
7094,0.0035,0.0099,1.0006,0.0759,-0.0276,0.0277
7104,0.0050,0.0138,0.9963,0.0911,0.0182,0.0735
7114,0.0040,0.0119,0.9987,0.0606,0.0030,-0.0028
7124,0.0040,0.0143,0.9987,-0.0157,0.0488,-0.0181
7134,0.0060,0.0138,0.9980,0.0301,0.0640,-0.0334
7144,0.0057,0.0151,1.0011,0.0453,0.0182,-0.0181
7154,0.0030,0.0138,0.9939,-0.0157,0.0030,0.0888
7164,0.0043,0.0085,1.0009,-0.0768,0.0182,-0.0181
7174,0.0053,0.0124,0.9980,-0.0310,0.0182,0.0277
7184,0.0048,0.0126,1.0018,-0.0005,-0.0734,0.0582
7194,0.0057,0.0107,1.0031,-0.0768,0.0335,0.1040
7204,0.0102,0.0124,0.9999,-0.0615,-0.0581,0.1040
7214,0.0070,0.0136,1.0004,0.0148,-0.0276,0.0735
7224,0.0092,0.0087,1.0002,0.0148,0.0946,0.0430
7234,0.0080,0.0104,1.0043,0.0301,0.1098,0.0124
7244,0.0030,0.0063,0.9975,0.0148,0.0640,0.1040
7254,0.0035,0.0109,1.0031,0.0148,0.0946,-0.0028
7264,0.0043,0.0104,0.9999,-0.0005,0.1404,0.0735
7274,-0.0014,0.0116,1.0050,-0.0005,0.1862,0.0277
7284,-0.0004,0.0097,1.0081,-0.0005,0.0640,-0.0028
7294,0.0053,0.0138,0.9944,-0.0463,0.0488,0.0277
7304,0.0050,0.0143,0.9973,0.0301,-0.0276,-0.0028
7314,0.0067,0.0138,0.9968,-0.0463,-0.1039,-0.0334
7324,0.0065,0.0158,1.0006,-0.0615,-0.0734,-0.0486
7334,0.0089,0.0136,1.0016,-0.0615,-0.1192,0.0124
7344,0.0075,0.0146,0.9997,-0.0768,-0.0428,0.0124
7354,0.0070,0.0138,0.9968,-0.0768,-0.0581,-0.0486
7364,0.0060,0.0138,0.9970,0.0148,0.0030,-0.0486
7374,0.0053,0.0112,0.9989,0.0301,-0.0886,-0.0028
7384,0.0060,0.0109,1.0033,-0.0310,0.0030,-0.0639
7394,0.0087,0.0087,0.9997,-0.0921,0.1098,-0.0792
7404,0.0026,0.0075,0.9960,0.0301,0.0640,-0.0486
7414,0.0038,0.0097,0.9951,0.0301,0.0335,-0.0792
7424,0.0107,0.0121,0.9948,-0.0005,-0.0276,-0.0334
7434,0.0062,0.0158,0.9960,0.0606,0.0182,-0.0181
7444,0.0077,0.0177,0.9989,0.0148,0.0182,-0.0028
7454,0.0048,0.0134,0.9997,-0.0157,-0.0123,-0.0181
7464,0.0050,0.0131,1.0035,-0.0615,0.0182,0.0430
7474,0.0114,0.0153,0.9992,0.0453,0.0335,0.0277
7484,0.0053,0.0129,0.9968,0.0606,0.0030,0.0124
7494,0.0021,0.0112,1.0026,0.0759,-0.0276,0.0124
7504,0.0062,0.0097,0.9968,0.0453,0.0182,0.0430
7514,0.0043,0.0148,0.9992,-0.0463,0.0488,-0.0181
7524,0.0053,0.0126,1.0045,-0.0310,-0.0276,-0.0639
7534,0.0065,0.0104,0.9914,-0.0463,-0.0428,-0.0486
7544,0.0008,0.0121,0.9997,0.0148,-0.0581,-0.0181
7554,0.0045,0.0109,0.9982,0.0453,-0.0428,0.1346
7564,0.0040,0.0104,0.9989,-0.0005,-0.0276,0.0888
7574,0.0077,0.0080,0.9944,0.0148,-0.0734,0.0582
7584,0.0062,0.0075,0.9994,0.0301,-0.0276,-0.0028
7594,0.0072,0.0097,1.0002,0.0301,0.0640,0.0124
7604,0.0055,0.0092,0.9994,-0.0005,0.0335,0.1193
7614,0.0057,0.0138,0.9982,0.0911,0.0640,-0.0181
7624,0.0067,0.0134,0.9992,0.0606,0.0335,-0.0181
7634,0.0087,0.0112,0.9944,0.0606,0.0335,0.0124
7644,0.0050,0.0170,0.9997,0.1064,0.0488,0.0735
7654,0.0048,0.0141,0.9973,0.0606,0.0030,0.0582
7664,0.0028,0.0124,0.9999,0.0606,0.0488,-0.0334
7674,0.0045,0.0160,0.9946,0.0301,0.0182,-0.0028
7684,0.0050,0.0116,0.9992,-0.0615,-0.0428,-0.0334
7694,0.0053,0.0082,1.0035,-0.0310,-0.0276,-0.0028
7704,0.0057,0.0141,0.9992,-0.0463,-0.0734,-0.0334
7714,0.0033,0.0116,0.9992,0.0148,-0.0581,0.0124
7724,0.0045,0.0109,0.9980,-0.0615,-0.0886,0.0277
7734,0.0055,0.0094,0.9970,-0.0768,-0.0581,0.0888
7744,0.0072,0.0163,0.9975,-0.0615,-0.0428,0.0430
7754,0.0089,0.0124,1.0014,-0.0157,0.0335,0.1193
7764,0.0092,0.0065,0.9975,-0.0157,0.0030,0.0888
7774,0.0099,0.0124,0.9960,-0.0157,0.0182,0.0277
7784,0.0180,0.0092,1.0062,0.0148,0.0640,0.0277
7794,0.0158,0.0126,1.0023,0.0301,0.0030,-0.0334
7804,0.0067,0.0180,0.9956,0.0148,0.0030,-0.0028
7814,0.0082,0.0185,0.9982,-0.0157,-0.0581,-0.0639
7824,0.0045,0.0138,0.9946,0.0759,-0.0276,-0.0486
7834,0.0033,0.0119,0.9980,0.0148,0.0640,-0.0334
7844,0.0023,0.0109,0.9977,0.0606,0.0488,0.0430
7854,0.0011,0.0102,0.9992,0.0148,-0.0123,-0.0181
7864,0.0072,0.0102,1.0021,0.0148,0.0335,0.0735
7874,0.0048,0.0131,0.9997,0.0301,0.0488,0.0888
7884,0.0070,0.0092,0.9934,0.0453,0.0182,0.0888
7894,0.0075,0.0129,1.0038,-0.0005,0.0335,0.1346
7904,0.0082,0.0129,1.0021,0.0606,0.0182,0.0430
7914,0.0080,0.0107,0.9965,0.0453,0.0182,-0.0181
7924,0.0057,0.0146,1.0016,-0.0157,0.0030,0.0124
7934,0.0060,0.0099,1.0035,0.0453,0.0488,-0.0639
7944,0.0023,0.0146,0.9997,-0.0310,0.0182,-0.0181
7954,0.0089,0.0136,0.9963,0.0759,0.0030,-0.0334
7964,0.0060,0.0114,0.9975,-0.0463,-0.0428,0.0277
7974,0.0072,0.0180,0.9963,-0.0310,-0.0276,0.0277
7984,0.0028,0.0097,0.9965,-0.0463,0.0030,-0.0028
7994,0.0040,0.0143,1.0033,0.0148,-0.0123,-0.0028
8004,0.0048,0.0092,0.9994,0.0148,0.0182,-0.0486
8014,0.0053,0.0143,0.9980,-0.0157,0.0182,0.0735
8024,0.0053,0.0131,1.0016,-0.0310,0.0030,0.0277
8034,0.0072,0.0124,1.0033,0.0148,0.0335,-0.0486
8044,0.0016,0.0163,0.9963,0.0148,0.0030,-0.0334
8054,0.0038,0.0119,0.9997,-0.0005,-0.0123,0.0124
8064,0.0065,0.0102,0.9956,0.0148,0.0182,-0.0334
8074,0.0065,0.0097,1.0035,-0.0157,0.0182,0.0277
8084,0.0121,0.0129,1.0016,-0.0005,-0.0276,0.0277
8094,0.0077,0.0112,1.0028,-0.0157,-0.0276,0.0277
8104,0.0084,0.0131,0.9977,-0.0005,-0.0581,-0.0486
8114,0.0055,0.0102,0.9975,-0.0310,-0.0276,-0.0639
8124,0.0055,0.0129,0.9939,-0.0768,-0.0581,-0.0792
8134,0.0097,0.0097,1.0011,0.0911,-0.0428,-0.0944
8144,0.0080,0.0063,0.9907,0.0911,0.0030,-0.0944
8154,0.0109,0.0138,0.9951,0.1369,0.0640,0.0430
8164,0.0170,0.0185,0.9982,-0.0005,0.0335,0.0124
8174,0.0060,0.0146,1.0002,-0.0310,0.0793,0.0124
8184,0.0099,0.0073,1.0014,0.1369,0.0488,-0.0181
8194,0.0033,0.0116,0.9980,0.0606,0.0030,0.0277
8204,0.0048,0.0112,0.9944,0.0759,0.0182,0.0124
8214,0.0013,0.0143,1.0023,-0.0005,-0.0276,-0.0334
8224,0.0028,0.0114,0.9987,-0.0157,-0.0276,0.0430
8234,0.0038,0.0134,1.0033,0.0759,-0.0276,0.0124
8244,0.0018,0.0146,1.0035,-0.0005,0.0030,0.0124
8254,0.0050,0.0136,0.9963,0.0301,0.0335,0.0124
8264,0.0033,0.0138,0.9999,-0.0157,-0.0276,-0.0486
8274,0.0070,0.0102,0.9936,-0.0310,0.0182,-0.0334
8284,0.0087,0.0109,0.9982,0.0301,0.0640,-0.0181
8294,0.0102,0.0102,0.9999,0.0148,0.0182,0.0277
8304,0.0055,0.0148,0.9997,-0.0005,0.0182,-0.0181
8314,0.0033,0.0141,1.0055,-0.0157,0.0793,-0.0792
8324,0.0055,0.0160,0.9992,-0.0463,0.0182,-0.0486
8334,0.0146,0.0099,1.0021,-0.0157,-0.0276,-0.0181
8344,0.0151,0.0109,1.0021,-0.0921,-0.0428,-0.0181
8354,0.0200,0.0099,0.9939,-0.0615,-0.0276,-0.0181
8364,0.0065,0.0099,0.9951,-0.0005,-0.0123,-0.0334
8374,0.0148,0.0082,0.9944,-0.0768,0.0182,0.0430
8384,0.0148,0.0092,0.9989,0.0301,0.0946,-0.0181
8394,0.0070,0.0109,0.9960,0.1064,0.2015,-0.0181
8404,0.0062,0.0119,0.9948,0.0759,0.1251,-0.0181
8414,0.0040,0.0112,0.9946,0.1675,0.0182,-0.1250
8424,0.0016,0.0134,0.9987,0.1369,-0.0581,0.0124
8434,0.0035,0.0134,0.9985,0.0911,-0.1344,-0.0181
8444,0.0045,0.0114,0.9985,0.0606,-0.1039,0.0124
8454,0.0060,0.0129,1.0014,0.0453,-0.1497,0.0582
8464,0.0030,0.0141,1.0016,0.0301,-0.0886,0.0430
8474,0.0023,0.0112,1.0023,-0.0157,-0.1192,0.0430
8484,0.0035,0.0099,0.9997,-0.0463,-0.1192,-0.0181
8494,0.0077,0.0107,0.9999,0.0606,-0.1192,-0.0181
8504,0.0072,0.0180,1.0021,-0.0615,-0.0886,0.0582
8514,0.0055,0.0114,0.9939,-0.0463,-0.0581,0.0430
8524,0.0045,0.0099,0.9944,-0.0463,-0.0734,-0.0181
8534,0.0075,0.0075,1.0031,-0.0463,-0.0581,-0.0334
8544,0.0089,0.0085,0.9985,-0.0768,-0.0123,-0.0334
8554,0.0072,0.0112,0.9975,-0.0157,0.0640,-0.0334
8564,0.0067,0.0148,0.9944,0.0606,0.0946,-0.0792
8574,0.0035,0.0087,0.9999,-0.0157,0.1251,-0.0181
8584,0.0028,0.0092,1.0016,-0.0157,0.0793,0.0277
8594,0.0060,0.0141,0.9970,-0.0463,0.0030,0.0430
8604,0.0065,0.0141,0.9975,-0.0768,0.0488,-0.0334
8614,0.0070,0.0136,1.0009,0.0148,0.0335,0.0430
8624,0.0021,0.0129,0.9985,0.0148,0.0640,0.0582
8634,0.0043,0.0134,1.0031,0.0301,0.1098,0.0430
8644,0.0055,0.0090,0.9970,0.0148,0.0030,0.0430
8654,0.0035,0.0119,0.9929,-0.0768,0.0335,-0.0181
8664,0.0053,0.0097,1.0011,-0.0157,-0.0276,-0.0334
8674,0.0094,0.0099,0.9924,0.0453,-0.0276,-0.0334
8684,0.0129,0.0158,0.9982,0.0301,-0.0123,0.0277
8694,0.0062,0.0148,0.9997,0.0453,0.0335,-0.0792
8704,0.0048,0.0153,1.0023,-0.0463,0.0946,0.0888
8714,0.0062,0.0121,0.9927,0.0759,0.0030,0.0888
8724,0.0070,0.0124,0.9975,0.1064,0.0335,0.0888
8734,0.0077,0.0077,1.0002,0.1369,0.0030,0.0735
8744,0.0050,0.0114,0.9924,0.0606,0.0946,-0.0334
8754,0.0070,0.0104,1.0026,-0.0310,-0.0428,0.0124
8764,0.0067,0.0131,0.9956,-0.0615,-0.0428,-0.0028
8774,0.0033,0.0155,0.9960,0.0759,-0.0581,0.0582
8784,0.0038,0.0148,0.9970,-0.0157,-0.0428,0.0888
8794,0.0030,0.0124,0.9992,0.0148,-0.0428,0.0888
8804,0.0030,0.0087,0.9931,-0.0768,-0.1039,-0.0028
8814,0.0070,0.0107,1.0006,-0.0005,0.0030,-0.0792
8824,0.0065,0.0107,0.9956,-0.1073,0.0030,-0.0028
8834,0.0075,0.0126,0.9927,-0.0310,-0.0428,-0.0181
8844,0.0055,0.0102,1.0026,0.0759,0.0030,-0.0334
8854,0.0087,0.0107,1.0006,0.0453,0.0182,-0.0486
8864,0.0092,0.0112,0.9936,0.0606,0.0793,-0.0028
8874,0.0072,0.0112,0.9985,-0.0157,0.0793,-0.0334
8884,0.0067,0.0114,0.9985,-0.0005,0.0793,0.0430
8894,0.0062,0.0126,1.0004,0.0148,0.0640,0.0430
8904,0.0045,0.0121,0.9999,0.0301,0.0640,0.0582
8914,0.0053,0.0131,1.0014,0.0453,0.0335,0.0124
8924,0.0048,0.0141,0.9960,0.0453,0.0488,0.0888
8934,0.0030,0.0199,1.0023,-0.0157,0.0946,-0.0028
8944,0.0023,0.0131,0.9963,0.0148,0.0488,0.0888
8954,0.0040,0.0138,1.0023,-0.0310,-0.0276,0.0582
8964,0.0043,0.0136,0.9985,-0.0157,0.0335,-0.0334
8974,0.0067,0.0134,1.0023,-0.0005,0.0335,-0.0334
8984,0.0062,0.0102,1.0004,-0.0768,0.0030,0.0277
8994,0.0065,0.0063,0.9985,-0.0615,-0.0276,0.0124
9004,0.0065,0.0107,0.9895,-0.0005,0.0488,-0.0181
9014,0.0050,0.0151,0.9977,-0.1073,-0.0734,-0.0486
9024,0.0053,0.0109,1.0021,-0.0005,-0.0581,-0.0181
9034,0.0070,0.0119,1.0028,-0.0005,-0.0886,-0.0334
9044,0.0104,0.0151,1.0004,0.0148,0.0030,-0.0181
9054,0.0050,0.0136,1.0002,-0.0005,-0.0276,0.0582
9064,0.0053,0.0141,0.9946,0.0301,0.0030,0.0124
9074,0.0021,0.0107,1.0009,0.0606,-0.0276,0.0277
9084,0.0057,0.0138,1.0018,-0.0005,0.0488,-0.0486
9094,0.0026,0.0119,1.0009,0.0301,-0.0734,0.0430
9104,0.0067,0.0148,1.0004,-0.0310,-0.0123,0.0277
9114,0.0030,0.0146,1.0016,-0.1379,0.0335,-0.0028
9124,0.0048,0.0148,0.9900,-0.0005,-0.0123,0.0430
9134,0.0045,0.0160,1.0018,-0.0005,-0.0581,0.0430
9144,0.0035,0.0068,1.0002,-0.0157,0.0182,0.0430
9154,0.0070,0.0097,0.9924,0.0301,0.0335,0.0124
9164,0.0016,0.0121,1.0018,0.0148,-0.0276,-0.0181
9174,0.0092,0.0131,1.0038,-0.0768,-0.0734,0.0277
9184,0.0062,0.0143,0.9968,-0.0463,-0.0428,0.0277
9194,0.0065,0.0138,0.9994,-0.0615,-0.0428,0.0124
9204,0.0080,0.0102,0.9997,-0.0310,-0.1192,-0.0028
9214,0.0057,0.0112,1.0023,0.0301,0.0182,0.0735
9224,0.0102,0.0141,0.9965,0.0301,0.0793,0.0277
9234,0.0065,0.0146,1.0009,0.0453,0.0335,-0.0028
9244,0.0094,0.0121,0.9970,0.0606,0.1862,0.0277
9254,0.0084,0.0121,1.0052,0.1064,0.0640,0.0430
9264,0.0109,0.0119,1.0004,0.0911,-0.0276,0.0430
9274,0.0060,0.0116,0.9975,0.0453,0.0030,0.0124
9284,0.0050,0.0185,0.9963,0.0148,-0.0123,-0.0334
9294,0.0035,0.0173,1.0011,-0.0157,0.0335,0.1040
9304,0.0077,0.0143,1.0002,-0.0157,0.0030,0.0735
9314,0.0114,0.0075,0.9944,0.0148,0.0182,0.0582
9324,0.0084,0.0070,0.9944,0.0453,-0.1497,-0.0486
9334,0.0065,0.0085,0.9968,0.0148,-0.0428,-0.0181
9344,-0.0134,0.0148,0.9968,0.0301,0.1251,0.0124
9354,0.0072,0.0119,0.9968,-0.0310,-0.0123,0.0124
9364,-0.0077,0.0107,0.9987,0.0453,-0.0276,-0.0486
9374,0.0080,0.0099,0.9936,0.0301,-0.1039,0.0735
9384,0.0030,0.0119,0.9992,0.0606,-0.0581,0.1193
9394,0.0072,0.0077,1.0023,0.0301,0.0030,0.1040
9404,0.0060,0.0114,1.0026,0.0148,0.0946,-0.0028
9414,0.0053,0.0075,1.0002,-0.0005,0.0793,-0.0486
9424,0.0077,0.0177,0.9907,-0.0157,0.0030,-0.0181
9434,0.0018,0.0136,0.9968,0.0606,0.0030,-0.0028
9444,0.0084,0.0173,1.0023,0.0453,0.0182,-0.0334
9454,0.0038,0.0153,0.9944,-0.0615,0.0335,0.0430
9464,-0.0004,0.0104,1.0086,-0.0463,-0.0123,-0.0028
9474,0.0067,0.0099,0.9980,-0.0310,0.0335,0.0277
9484,0.0097,0.0116,0.9999,0.0148,-0.0581,-0.0181
9494,0.0065,0.0087,1.0009,0.0148,0.0030,0.0430
9504,0.0033,0.0119,1.0009,0.0453,0.0182,-0.0028
9514,0.0080,0.0116,1.0040,0.0301,0.0182,-0.0639
9524,0.0070,0.0119,1.0045,-0.0005,-0.0276,-0.0486
9534,0.0043,0.0116,0.9968,-0.1226,-0.0428,-0.0028
9544,0.0065,0.0153,0.9980,-0.0615,-0.0734,0.0582
9554,0.0067,0.0134,0.9980,-0.0768,-0.0581,0.0277
9564,0.0062,0.0138,0.9999,-0.0463,-0.0276,0.0888
9574,0.0067,0.0094,0.9992,-0.0005,0.0030,0.0735
9584,0.0075,0.0075,0.9980,0.0148,0.0488,0.0124
9594,0.0067,0.0131,0.9989,0.0301,0.0640,0.0430
9604,0.0133,0.0094,1.0057,0.0453,0.0335,-0.0028
9614,0.0099,0.0129,0.9902,0.1369,0.0488,0.0124
9624,0.0143,0.0134,0.9985,0.1217,0.0030,0.0430
9634,0.0023,0.0138,0.9987,0.0148,0.0335,0.0124
9644,0.0114,0.0134,1.0006,0.0759,-0.0123,0.0735
9654,0.0021,0.0094,1.0002,-0.0310,0.0182,0.0582
9664,0.0053,0.0143,0.9958,-0.0615,-0.0428,0.0735
9674,0.0040,0.0121,1.0002,-0.0310,-0.0886,0.0582
9684,0.0033,0.0107,0.9987,-0.0157,0.0640,-0.0181
9694,0.0038,0.0094,1.0021,-0.0310,0.0030,-0.0334
9704,0.0053,0.0129,0.9946,-0.0157,-0.0428,-0.0181
9714,0.0077,0.0124,0.9948,-0.0005,0.0030,0.0430
9724,0.0087,0.0153,1.0014,0.0759,0.0488,0.0277
9734,0.0062,0.0121,0.9980,0.0301,0.0182,0.0430
9744,-0.0026,0.0158,0.9985,-0.0310,0.0182,-0.0028
9754,0.0030,0.0104,0.9992,0.0301,0.0335,-0.0486
9764,0.0038,0.0099,1.0106,-0.0005,0.0182,-0.0181
9774,0.0062,0.0080,1.0031,0.0453,0.0335,0.0277
9784,0.0062,0.0168,0.9977,-0.0615,0.0488,-0.0334
9794,0.0060,0.0124,0.9968,-0.0615,0.0640,0.0124
9804,0.0050,0.0143,1.0031,-0.0157,0.1251,-0.0792
9814,0.0048,0.0155,1.0035,0.0453,0.0793,0.0124
9824,0.0016,0.0104,1.0018,0.0453,0.0488,-0.0486
9834,0.0087,0.0107,1.0011,0.0453,0.0030,0.1040
9844,-0.0090,0.0097,1.0069,0.0148,0.0946,0.1498
9854,0.0011,0.0102,0.9985,-0.0157,0.0793,0.1040
9864,-0.0011,0.0163,0.9992,-0.0463,0.0182,0.0277
9874,0.0030,0.0146,0.9934,-0.0310,0.0488,-0.0334
9884,0.0038,0.0138,1.0040,0.0606,-0.0428,-0.0028
9894,0.0033,0.0141,0.9922,-0.0921,-0.0276,-0.0486
9904,0.0111,0.0126,0.9982,-0.0310,0.0030,0.0735
9914,0.0067,0.0143,0.9980,-0.0157,0.0030,0.0124
9924,0.0075,0.0104,0.9992,-0.0005,0.0182,-0.0028
9934,0.0097,0.0160,0.9934,0.0301,0.0030,-0.0181
9944,0.0084,0.0058,1.0064,-0.0005,0.0030,0.0430
9954,0.0048,0.0136,0.9965,-0.0463,-0.0123,-0.0639
9964,0.0057,0.0119,0.9997,-0.0157,-0.0428,-0.1250
9974,0.0072,0.0116,1.0006,-0.0921,-0.0276,0.0124
9984,0.0055,0.0087,0.9963,-0.1073,0.0030,-0.0028
9994,0.0026,0.0109,0.9994,-0.0615,0.0030,0.0277
10004,0.0018,0.0129,1.0023,-0.0463,0.0335,-0.0334
10014,0.0043,0.0109,1.0026,-0.0005,-0.0276,-0.0334
10024,0.0030,0.0099,0.9956,-0.0615,0.0030,-0.0028
10034,0.0028,0.0129,1.0011,-0.0463,0.0335,-0.0334
10044,0.0050,0.0119,0.9973,-0.0921,0.0182,0.0277
10054,0.0016,0.0129,1.0002,0.0148,-0.0734,-0.0181
10064,0.0080,0.0146,0.9953,0.0148,-0.0581,0.0430
10074,0.0089,0.0131,1.0038,-0.1379,-0.0123,0.0430
10084,0.0062,0.0082,0.9956,0.0759,-0.0123,0.0124
10094,0.0072,0.0090,0.9934,-0.0157,0.0182,0.0888
10104,0.0062,0.0092,1.0026,-0.0463,0.0640,0.0124
10114,0.0045,0.0131,0.9985,0.0606,0.1251,0.0888
10124,0.0077,0.0104,0.9987,-0.0005,0.0946,0.0124
10134,0.0092,0.0131,1.0028,-0.0310,0.0335,-0.0028
10144,0.0065,0.0148,1.0055,-0.0615,0.0030,-0.0028
10154,0.0062,0.0087,1.0043,-0.0615,-0.0581,0.0124
10164,0.0067,0.0143,1.0033,-0.0310,0.0793,0.0888
10174,0.0021,0.0094,0.9927,0.0301,0.0335,0.1040
10184,0.0072,0.0094,1.0055,-0.0615,0.0335,-0.0028
10194,0.0045,0.0087,0.9948,-0.0157,0.0640,-0.0639
10204,0.0072,0.0109,0.9997,0.0148,0.1098,-0.0792
10214,0.0053,0.0138,1.0021,0.0301,-0.0276,-0.0334
10224,0.0080,0.0114,0.9980,-0.0157,0.0030,0.0735
10234,0.0057,0.0124,0.9982,-0.0310,-0.0276,0.0735
10244,0.0050,0.0138,0.9989,-0.0310,-0.0428,0.0277
10254,0.0016,0.0131,0.9951,-0.0157,-0.0276,-0.0334
10264,0.0075,0.0070,0.9994,-0.1073,0.0030,-0.0181
10274,0.0055,0.0138,1.0069,-0.0463,-0.0428,0.0277
10284,0.0060,0.0102,1.0023,0.0148,-0.0886,0.0430
10294,0.0119,0.0097,1.0038,-0.0005,-0.0581,0.0582
10304,0.0067,0.0129,1.0014,-0.0310,0.0030,0.0124
10314,0.0013,0.0112,1.0006,-0.0768,-0.0276,-0.0334
10324,0.0077,0.0131,1.0035,-0.0005,-0.0428,0.0124
10334,0.0075,0.0114,0.9968,0.0453,0.0640,-0.0028
10344,0.0035,0.0070,0.9975,0.0759,-0.0276,-0.0486
10354,0.0065,0.0090,0.9953,0.0453,0.1098,-0.0334
10364,0.0077,0.0119,1.0031,-0.0310,0.0182,-0.0792
10374,0.0077,0.0160,0.9987,-0.0157,0.1098,-0.1097
10384,0.0065,0.0158,0.9997,-0.0157,0.0488,-0.0028
10394,0.0048,0.0148,1.0004,0.0301,0.0793,0.0582
10404,0.0067,0.0151,0.9922,-0.0005,0.0182,0.0735
10414,0.0038,0.0141,1.0050,-0.0157,0.0335,-0.0181
10424,0.0055,0.0107,0.9982,-0.0463,-0.0428,-0.0334
10434,0.0004,0.0109,0.9968,-0.0768,-0.0276,0.0277
10444,0.0072,0.0094,1.0006,-0.0768,-0.0581,0.0277
10454,0.0048,0.0124,0.9914,0.0301,-0.0581,-0.0334
10464,0.0072,0.0102,1.0004,-0.0310,0.0182,-0.0334
10474,0.0043,0.0143,1.0002,-0.0157,0.0182,-0.0334
10484,0.0023,0.0136,0.9970,-0.0005,-0.0428,0.0277
10494,0.0097,0.0121,0.9929,-0.0615,-0.1192,0.0888
10504,0.0072,0.0119,1.0038,-0.0615,-0.1344,0.0277
10514,0.0092,0.0063,0.9994,-0.0005,-0.1039,-0.0028
10524,0.0067,0.0131,0.9985,0.0148,-0.0123,0.0277
10534,0.0080,0.0136,0.9994,0.0148,0.0793,-0.0334
10544,0.0057,0.0116,0.9975,0.0301,0.1556,0.0735
10554,0.0097,0.0090,1.0002,0.0148,0.0946,0.0430
10564,0.0050,0.0134,0.9980,0.0606,0.0946,0.0277
10574,0.0062,0.0141,0.9997,0.0453,0.0793,0.0277
10584,0.0023,0.0146,1.0031,-0.0005,0.0793,0.0430
10594,0.0082,0.0129,1.0048,-0.0463,0.0488,0.0277
10604,0.0075,0.0097,0.9989,0.0148,0.0182,0.0430
10614,0.0097,0.0119,0.9987,0.0606,-0.0276,0.0582
10624,0.0045,0.0094,0.9951,0.0911,-0.0581,0.1040
10634,0.0023,0.0107,1.0038,0.0453,-0.0734,0.0888
10644,0.0053,0.0126,1.0009,0.0301,-0.0428,0.0124
10654,0.0035,0.0112,0.9963,0.0453,-0.1039,-0.0028
10664,0.0048,0.0112,0.9958,0.0301,-0.0886,-0.0028
10674,0.0023,0.0131,0.9951,0.0301,-0.0886,-0.0028
10684,0.0075,0.0104,0.9997,0.0453,-0.0428,0.0277
10694,0.0084,0.0129,0.9975,-0.0157,-0.0428,-0.0028
10704,0.0102,0.0068,0.9973,-0.0463,-0.0734,0.0124
10714,0.0077,0.0129,0.9975,-0.0310,0.0182,-0.0181
10724,0.0040,0.0124,0.9958,-0.0310,0.0030,-0.0028
10734,0.0065,0.0112,0.9982,-0.0310,0.0488,-0.0944
10744,0.0070,0.0160,1.0011,0.1064,0.0946,0.0124
10754,0.0070,0.0175,0.9987,-0.0310,-0.0123,0.0277
10764,0.0050,0.0131,1.0033,0.0148,0.0793,0.0430
10774,0.0040,0.0160,0.9994,-0.0310,0.1098,0.0277
10784,0.0033,0.0138,0.9977,0.0148,-0.0123,0.0735
10794,0.0082,0.0121,1.0006,-0.0157,0.0030,0.0277
10804,0.0075,0.0092,0.9987,-0.0615,0.0030,-0.0181
10814,0.0067,0.0141,0.9963,-0.0615,0.0488,-0.0639
10824,0.0077,0.0116,0.9975,0.0911,0.0030,-0.0639
10834,0.0021,0.0109,0.9939,0.0453,0.0488,-0.1097
10844,0.0067,0.0131,0.9980,-0.0005,-0.0123,0.0430
10854,0.0065,0.0153,0.9951,-0.0310,0.0030,0.0124
10864,0.0129,0.0153,0.9944,-0.0005,0.0335,0.0582
10874,0.0070,0.0126,0.9977,-0.0005,0.0640,-0.0334
10884,0.0087,0.0146,0.9989,-0.0615,-0.0428,0.0582
10894,0.0040,0.0160,0.9960,-0.0463,-0.0276,0.0277
10904,0.0065,0.0099,0.9970,-0.0310,-0.0734,0.0582
10914,0.0197,0.0070,1.0050,-0.0005,-0.1650,0.0735
10924,0.0092,0.0170,1.0014,-0.0615,0.0335,-0.0181
10934,0.0070,0.0138,1.0011,-0.0310,0.0335,0.0430
10944,0.0067,0.0116,1.0016,-0.0310,0.0640,-0.0792
10954,0.0028,0.0124,1.0011,0.0148,0.0335,0.0277
10964,0.0055,0.0124,1.0038,0.0301,-0.0428,0.0124
10974,0.0062,0.0131,0.9982,0.0606,0.0488,0.0124
10984,0.0055,0.0112,0.9958,0.0301,-0.0581,0.0888
10994,0.0033,0.0121,0.9975,0.0148,-0.1039,-0.0028
11004,0.0067,0.0119,1.0035,0.0911,-0.0734,0.0888
11014,0.0070,0.0141,0.9960,-0.0310,-0.0276,0.0124
11024,0.0077,0.0141,1.0023,0.0148,0.0335,0.0735
11034,0.0119,0.0102,1.0072,-0.0463,0.1404,0.0277
11044,0.0077,0.0114,0.9987,-0.0615,0.0946,-0.0639
11054,0.0057,0.0146,0.9980,-0.0157,0.0335,-0.0181
11064,0.0060,0.0119,0.9960,0.0148,0.0030,-0.0181
11074,0.0102,0.0153,0.9970,0.0148,-0.0428,-0.0486
11084,0.0124,0.0109,0.9975,-0.0005,0.0182,0.1040
11094,-0.0014,0.0160,1.0004,0.0148,0.0640,0.0277
11104,0.0060,0.0134,0.9975,0.0606,0.0335,0.0277
11114,0.0060,0.0112,0.9973,-0.0005,0.0335,-0.0181
11124,0.0089,0.0090,0.9987,0.0148,0.0030,-0.0028
11134,0.0045,0.0087,0.9939,-0.0157,0.0030,-0.0181
11144,0.0060,0.0124,1.0021,0.0301,0.0335,-0.0181
11154,0.0030,0.0090,0.9985,-0.0310,-0.0886,-0.0486
11164,0.0055,0.0119,0.9999,0.0148,-0.0428,0.0735
11174,0.0126,0.0124,1.0043,0.0606,-0.1497,-0.0028
11184,0.0092,0.0102,0.9992,0.0301,-0.0581,-0.0181
11194,0.0080,0.0153,0.9965,0.0453,0.0640,-0.0181
11204,0.0116,0.0121,0.9980,-0.0157,0.1709,0.0582
11214,0.0077,0.0129,0.9989,-0.0005,0.1251,-0.0486
11224,0.0075,0.0148,0.9985,-0.0615,0.0030,-0.0181
11234,0.0048,0.0146,1.0002,-0.0310,-0.0123,-0.0486
11244,0.0013,0.0143,1.0048,-0.0615,0.0335,-0.0181
11254,0.0092,0.0131,0.9963,0.0148,-0.0581,0.0582
11264,0.0040,0.0107,0.9958,-0.0157,-0.0276,-0.0028
11274,0.0092,0.0119,1.0016,0.0148,0.0030,-0.0028
11284,0.0111,0.0087,0.9987,0.0453,0.0030,0.0277
11294,0.0072,0.0094,1.0021,0.0148,0.0030,-0.0028
11304,0.0094,0.0090,0.9982,-0.0005,0.0030,0.0277
11314,0.0043,0.0099,1.0009,-0.0005,0.0182,0.1040
11324,0.0040,0.0148,0.9994,0.0301,0.0488,0.0277
11334,0.0016,0.0109,0.9956,-0.0463,0.0335,0.0582
11344,0.0065,0.0119,0.9965,-0.0615,-0.0428,-0.0028
11354,0.0050,0.0155,0.9977,-0.0157,-0.0123,0.1040
11364,0.0021,0.0099,0.9980,0.0453,-0.0123,0.0582
11374,0.0065,0.0141,0.9997,0.0606,-0.0276,0.0430
11384,0.0048,0.0116,0.9992,-0.0005,-0.0123,0.0277
11394,0.0072,0.0099,0.9994,0.0148,-0.0123,-0.0944
11404,0.0040,0.0094,1.0023,-0.0768,0.0030,-0.0028
11414,0.0107,0.0099,0.9917,-0.0005,-0.0276,-0.0792
11424,0.0099,0.0126,1.0014,-0.0463,0.0335,-0.0334
11434,0.0107,0.0104,0.9968,-0.0463,0.0946,0.0277
11444,0.0067,0.0085,1.0009,-0.0005,0.0640,0.0124
11454,0.0070,0.0129,1.0004,-0.0768,0.0488,0.0124
11464,0.0099,0.0107,0.9951,0.0148,-0.0428,0.0582
11474,0.0055,0.0097,0.9989,0.0301,0.0030,0.0277
11484,0.0045,0.0090,0.9982,-0.0005,0.0030,-0.0486
11494,0.0067,0.0151,1.0023,-0.0005,0.0335,-0.0334
11504,0.0053,0.0114,0.9963,0.0301,-0.0276,0.0735
11514,0.0006,0.0104,1.0062,0.0759,-0.0123,0.0124
11524,0.0043,0.0102,0.9997,0.0148,-0.1650,-0.0181
11534,0.0040,0.0109,1.0028,-0.0463,0.0030,-0.0028
11544,0.0089,0.0112,0.9977,0.0148,0.0030,-0.0028
11554,0.0084,0.0107,1.0016,0.0301,0.0030,-0.0028
11564,0.0030,0.0102,0.9982,-0.0463,0.0488,0.0430
11574,-0.0026,0.0031,1.0265,0.0301,0.0030,0.0277
11584,0.0035,0.0192,1.0031,0.0606,0.0335,-0.0028
11594,-0.0055,0.0312,0.9641,-0.0005,0.0030,0.0430
11604,0.0084,0.0119,0.9999,0.0759,0.1251,0.0124
11614,0.0114,0.0134,1.0014,0.0453,0.1556,0.0735
11624,-0.0075,0.0243,0.9762,-0.0463,0.1404,0.0124
11634,0.0038,0.0097,0.9951,-0.0005,0.0335,-0.0028
11644,0.0094,0.0085,1.0004,0.0911,-0.0276,0.0277
11654,0.0070,0.0109,0.9999,0.0606,0.1404,-0.0334
11664,0.0016,0.0097,1.0028,0.0606,0.0793,-0.0486
11674,0.0060,0.0151,1.0026,0.0301,0.0946,0.1193
11684,0.0026,0.0136,0.9987,-0.0310,0.0793,0.0124
11694,0.0060,0.0173,1.0050,-0.0005,0.0793,0.0277
11704,0.0158,0.0119,1.0089,0.0301,0.0335,-0.0181
11714,0.0077,0.0146,1.0014,-0.0615,-0.1039,0.0124
11724,0.0048,0.0143,0.9987,-0.0768,-0.0581,-0.0181
11734,0.0065,0.0146,1.0043,-0.0921,0.0182,-0.0639
11744,0.0080,0.0092,0.9912,-0.0921,0.0030,-0.0486
11754,-0.0050,0.0036,1.0178,-0.1073,0.0640,-0.0486
11764,0.0038,0.0097,1.0067,-0.0310,0.0488,-0.0486
11774,0.0033,0.0087,0.9968,-0.1073,0.0182,0.0124
11784,0.0119,0.0109,0.9885,-0.0310,0.0793,-0.0028
11794,0.0121,0.0126,0.9987,0.0759,0.1404,-0.0334
11804,0.0021,0.0126,0.9982,0.1369,0.1098,0.0277
11814,0.0092,0.0136,1.0016,0.0911,0.1556,0.0124
11824,0.0050,0.0141,0.9977,0.0453,-0.0276,0.0277
11834,0.0030,0.0126,1.0084,0.0148,0.0488,0.1040
11844,0.0021,0.0158,0.9977,-0.0463,-0.0428,0.0430
11854,-0.0016,0.0153,0.9992,-0.0310,0.0182,0.0277
11864,0.0023,0.0158,0.9956,0.0301,-0.0428,-0.0028
11874,0.0053,0.0141,0.9973,-0.0005,-0.0581,0.0124
11884,0.0021,0.0138,0.9975,-0.0310,-0.0123,-0.0028
11894,0.0065,0.0099,0.9992,0.0148,0.0488,0.0277
11904,0.0013,0.0104,0.9970,-0.0615,-0.0886,0.0124
11914,0.0160,0.0033,1.0026,-0.0005,-0.1802,0.0124
11924,0.0084,0.0131,0.9970,0.0606,-0.1497,0.0582
11934,0.0119,0.0136,0.9936,0.0606,-0.1497,-0.0181
11944,0.0094,0.0134,0.9992,0.0911,-0.0886,-0.0181
11954,0.0084,0.0121,0.9985,-0.0157,0.0335,-0.0028
11964,0.0060,0.0114,0.9876,-0.0005,0.0488,-0.0639
11974,0.0030,0.0141,1.0018,-0.0005,-0.0734,0.0124
11984,0.0040,0.0148,0.9924,0.0301,-0.0581,0.0124
11994,0.0060,0.0121,1.0033,0.1064,-0.0734,-0.0028
12004,0.0084,0.0126,0.9958,0.0148,-0.0428,0.0430
12014,0.0004,0.0134,1.0004,-0.0005,0.0793,-0.0028
12024,0.0040,0.0165,1.0023,-0.0310,-0.0276,0.0735
12034,-0.0104,0.0212,0.9883,0.0453,0.0946,0.0735
12044,0.0060,0.0104,0.9970,0.0301,0.0335,0.0582
12054,0.0185,0.0148,1.0018,0.0606,0.0182,0.0735
12064,0.0040,0.0131,0.9934,-0.0157,-0.0276,-0.0486
12074,0.0094,0.0119,0.9939,-0.0005,0.0030,0.0124
12084,0.0048,0.0087,1.0045,0.0453,0.0488,-0.0028
12094,0.0045,0.0195,0.9987,0.0148,0.1404,0.0277
12104,0.0035,0.0107,1.0018,0.0148,0.0793,-0.0334
12114,0.0045,0.0102,0.9948,0.0606,0.0946,0.0735
12124,0.0045,0.0104,0.9977,0.0453,0.0793,0.0277
12134,0.0075,0.0129,0.9980,0.0301,-0.0276,0.0124
12144,0.0057,0.0114,0.9989,-0.0615,0.0030,0.0277
12154,0.0094,0.0136,0.9977,-0.1531,-0.0276,0.0124
12164,0.0080,0.0155,0.9999,-0.0463,-0.0734,0.0582
12174,0.0023,0.0112,1.0014,0.0148,0.0488,0.0277
12184,0.0060,0.0165,1.0031,-0.0463,0.0488,0.1346
12194,0.0062,0.0119,1.0033,-0.0768,0.0488,0.0430
12204,0.0038,0.0104,1.0028,0.0148,-0.0276,0.0277
12214,0.0070,0.0114,1.0033,0.0148,-0.0886,-0.0181
12224,0.0077,0.0070,1.0004,-0.1073,0.0030,-0.0028
12234,0.0087,0.0131,0.9973,0.0301,0.0793,0.0430
12244,0.0050,0.0090,1.0035,-0.0463,0.0640,0.0124
12254,0.0050,0.0092,1.0011,-0.0005,0.0488,0.1040
12264,0.0055,0.0102,0.9999,0.0759,0.0640,0.0277
12274,0.0065,0.0131,0.9989,0.0911,-0.0276,0.0277
12284,0.0065,0.0131,0.9992,0.0148,-0.0123,-0.0639
12294,0.0062,0.0143,1.0023,0.0148,0.0182,0.0124
12304,0.0023,0.0136,0.9980,-0.0463,-0.0581,0.0582
12314,0.0030,0.0129,1.0060,-0.0310,-0.0428,0.0124
12324,0.0065,0.0090,0.9999,-0.0157,-0.0428,0.0277
12334,0.0045,0.0104,0.9944,-0.0310,-0.0428,0.0430
12344,0.0057,0.0138,0.9985,-0.0157,0.0335,0.0124
12354,0.0048,0.0114,0.9999,-0.0310,0.0030,-0.0334
12364,0.0065,0.0114,0.9970,-0.0157,-0.0886,-0.1097
12374,0.0080,0.0082,1.0014,-0.0157,-0.0428,-0.0792
12384,0.0065,0.0114,0.9970,0.0453,-0.1039,0.0735
12394,0.0072,0.0092,0.9975,-0.0005,-0.0886,-0.0028
12404,0.0065,0.0124,0.9914,-0.0615,0.0182,0.0277
12414,0.0062,0.0151,1.0060,-0.0768,0.0182,0.0582
12424,0.0048,0.0109,1.0004,-0.0157,-0.0276,0.0277
12434,0.0094,0.0124,1.0043,0.0606,-0.0886,-0.0028
12444,0.0045,0.0151,0.9968,0.0301,-0.1344,-0.0028
12454,0.0043,0.0170,1.0043,-0.0157,-0.0734,-0.0334
12464,0.0053,0.0165,0.9994,0.0148,-0.0886,-0.0028
12474,0.0057,0.0155,1.0093,0.0148,-0.0581,0.0277
12484,0.0065,0.0153,0.9958,0.0301,-0.0581,-0.0334
12494,0.0057,0.0121,0.9941,0.0301,-0.0123,0.0277
12504,0.0089,0.0131,1.0035,-0.0615,-0.0581,0.0124
12514,0.0097,0.0092,1.0052,0.0148,0.0335,-0.0334
12524,0.0062,0.0119,0.9958,0.0148,-0.0428,0.0277
12534,0.0080,0.0112,1.0040,0.0148,-0.0581,-0.0181
12544,0.0043,0.0104,1.0002,0.0606,-0.0581,-0.0486
12554,0.0084,0.0134,1.0026,0.0301,-0.1039,0.0277
12564,0.0067,0.0146,0.9987,0.0911,-0.1650,0.1040
12574,0.0067,0.0102,0.9989,0.0606,-0.2566,0.1040
12584,0.0070,0.0107,1.0023,0.0148,-0.1192,0.0277
12594,0.0070,0.0121,0.9944,-0.0310,-0.0581,0.0124
12604,0.0050,0.0114,0.9939,-0.0157,-0.0581,0.0277
12614,0.0053,0.0112,0.9924,-0.0157,0.0030,-0.0028
12624,0.0062,0.0124,1.0004,0.0606,0.0030,-0.0181
12634,0.0030,0.0126,0.9939,-0.0157,0.0640,0.0124
12644,0.0067,0.0121,0.9936,-0.0615,0.0488,0.0430
12654,0.0080,0.0112,0.9987,0.0148,-0.0123,0.0430
12664,0.0030,0.0143,1.0011,0.0148,0.0182,-0.0181
12674,0.0072,0.0109,0.9965,0.0148,-0.0428,0.0430
12684,0.0048,0.0092,0.9980,-0.0463,0.0488,0.0124
12694,0.0053,0.0119,0.9922,0.0301,0.0030,-0.0181
12704,0.0057,0.0136,0.9951,-0.0005,0.0030,0.0430
12714,0.0050,0.0126,0.9977,0.0453,0.0030,-0.0334
12724,0.0065,0.0148,0.9997,0.0148,0.0488,-0.0486
12734,0.0050,0.0107,0.9994,0.0301,0.0488,-0.0639
12744,0.0067,0.0138,0.9948,-0.0005,-0.0886,0.0277
12754,0.0057,0.0112,0.9985,-0.0310,-0.1650,0.0430
12764,0.0075,0.0151,0.9934,-0.0005,-0.1192,-0.0181
12774,0.0070,0.0136,0.9989,-0.0157,-0.1192,0.0430
12784,0.0070,0.0129,1.0021,-0.1073,0.0030,0.0430
12794,0.0018,0.0099,0.9927,-0.1073,0.0335,0.0735
12804,0.0094,0.0155,0.9973,0.0606,0.0488,-0.0639
12814,0.0048,0.0085,0.9958,0.0148,0.0182,-0.0944
12824,0.0065,0.0114,0.9946,0.0606,-0.0276,-0.0486
12834,0.0077,0.0077,0.9970,0.0759,-0.0428,-0.0334
12844,0.0072,0.0119,1.0004,-0.0615,-0.0276,0.0430
12854,0.0097,0.0102,0.9997,0.0453,0.0335,0.0582
12864,0.0102,0.0104,0.9953,0.0606,0.0946,0.0430
12874,0.0060,0.0129,0.9968,-0.0157,0.0793,-0.0486
12884,0.0026,0.0158,0.9948,-0.0157,0.0946,-0.0486
12894,0.0062,0.0109,1.0021,-0.0157,-0.0428,0.0277
12904,0.0040,0.0104,1.0018,0.0453,0.0335,0.0735
12914,0.0065,0.0163,0.9977,0.0453,0.0793,-0.0028
12924,0.0035,0.0138,1.0009,0.0759,0.0030,0.0124
12934,0.0065,0.0131,0.9963,-0.0005,0.0488,0.0124
12944,0.0038,0.0131,0.9900,-0.0005,0.0182,0.0277
12954,0.0084,0.0112,1.0014,-0.0157,0.0182,-0.0028
12964,0.0077,0.0141,0.9968,0.0148,0.0335,0.0124
12974,0.0077,0.0080,0.9963,0.0606,0.0640,0.0430
12984,0.0087,0.0107,0.9997,-0.0005,0.0488,-0.0334
12994,0.0060,0.0109,0.9985,0.0453,0.0946,0.0277
13004,0.0033,0.0112,1.0016,-0.0463,0.1098,-0.0028
13014,0.0168,0.0087,1.0031,-0.0005,-0.0428,-0.0181
13024,0.0087,0.0134,0.9953,-0.0463,0.1251,0.0277
13034,0.0048,0.0136,1.0048,-0.0005,0.1709,0.0430
13044,0.0067,0.0126,0.9963,0.0301,0.1862,0.0430
13054,0.0057,0.0124,1.0045,0.0148,0.1404,0.0430
13064,0.0050,0.0112,1.0011,0.0301,0.1098,0.0430
13074,0.0038,0.0163,1.0002,-0.0157,0.0182,0.0582
13084,-0.0016,0.0202,0.9767,-0.0310,0.0182,0.0888
13094,0.0038,0.0097,0.9982,-0.0310,0.0182,0.0582
13104,0.0089,0.0119,1.0002,-0.0768,-0.0123,0.0277
13114,0.0045,0.0107,0.9997,-0.0768,0.0030,-0.0944
13124,0.0080,0.0102,0.9977,0.0148,-0.0276,0.0124
13134,0.0097,0.0090,0.9958,0.0301,-0.0276,-0.0181
13144,0.0070,0.0094,1.0028,-0.0615,-0.0123,0.0430
13154,0.0038,0.0104,1.0028,-0.0310,0.0182,0.0277
13164,0.0055,0.0126,1.0018,0.0606,-0.0123,0.1040
13174,0.0050,0.0102,0.9970,0.0911,-0.0276,0.0430
13184,0.0119,0.0146,1.0050,0.0301,-0.0123,0.0430
13194,0.0072,0.0143,1.0028,0.0301,0.0640,0.0277
13204,0.0077,0.0160,0.9987,-0.0615,0.0488,0.0735
13214,0.0055,0.0129,0.9970,-0.0463,0.0488,0.0277
13224,0.0065,0.0134,1.0052,-0.0005,0.1098,-0.0028
13234,0.0013,0.0148,1.0023,-0.0157,-0.0428,0.0430
13244,0.0057,0.0153,0.9992,0.0148,0.0030,0.0124
13254,0.0045,0.0148,0.9992,-0.0005,0.0030,-0.0944
13264,0.0050,0.0138,0.9985,-0.0310,0.0030,0.0124
13274,0.0055,0.0151,0.9956,-0.0921,-0.0123,-0.0181
13284,0.0057,0.0104,0.9985,-0.0463,-0.0734,-0.0028
13294,0.0065,0.0092,1.0033,-0.0615,-0.0428,0.0735
13304,0.0043,0.0094,1.0038,0.0148,0.0335,0.1193
13314,0.0094,0.0082,0.9982,0.0301,-0.0428,0.0582
13324,0.0087,0.0141,0.9985,-0.0157,0.0793,-0.0028
13334,0.0082,0.0116,0.9985,-0.0157,0.0488,0.0124
13344,0.0099,0.0094,1.0018,-0.0005,0.0793,0.0582
13354,0.0043,0.0131,0.9910,0.0606,-0.0123,-0.0028
13364,0.0092,0.0148,0.9977,-0.0615,0.0335,0.0124
13374,0.0089,0.0138,0.9948,-0.0768,-0.0276,0.0277
13384,0.0109,0.0155,1.0031,0.0453,0.0182,0.0124
13394,0.0097,0.0114,0.9989,-0.0310,-0.0428,0.0124
13404,0.0084,0.0102,0.9960,-0.0157,-0.0581,0.0277
13414,0.0089,0.0112,1.0014,-0.0157,-0.0123,0.0430
13424,0.0035,0.0080,1.0040,-0.0157,-0.0276,-0.0028
13434,0.0043,0.0143,0.9951,0.0301,0.0488,0.0735
13444,0.0080,0.0109,0.9992,0.0911,0.0793,-0.0181
13454,0.0053,0.0116,1.0002,0.0301,0.0793,-0.0181
13464,0.0050,0.0134,0.9970,0.0453,0.0335,-0.0486
13474,0.0065,0.0116,0.9987,0.0606,0.0335,0.0582
13484,0.0099,0.0126,0.9975,0.0606,0.1098,0.0582
13494,0.0045,0.0121,0.9999,0.1064,0.0793,-0.0028
13504,0.0060,0.0107,0.9992,0.0911,-0.0123,0.0124
13514,0.0055,0.0129,0.9982,-0.0157,0.0182,-0.0181
13524,0.0065,0.0126,0.9997,0.0148,-0.0123,0.0430
13534,0.0075,0.0134,1.0033,0.0301,0.0335,0.0582
13544,0.0040,0.0114,1.0031,0.0911,0.0030,0.0277
13554,0.0055,0.0138,1.0002,0.0148,0.0182,-0.0181
13564,0.0065,0.0134,1.0014,0.0148,0.0640,-0.0334
13574,0.0070,0.0131,0.9985,-0.0310,0.0488,0.0430
13584,0.0065,0.0080,0.9975,-0.0310,0.0182,-0.0181
13594,0.0040,0.0077,0.9985,-0.0768,0.0488,-0.0486
13604,0.0077,0.0097,1.0052,-0.1226,0.0488,-0.0028
13614,0.0053,0.0129,0.9970,0.0148,0.0335,0.0124
13624,0.0094,0.0126,0.9939,-0.0005,0.0488,-0.0334
13634,0.0057,0.0136,0.9992,0.0911,0.0030,0.0277
13644,0.0033,0.0112,0.9968,-0.0157,0.0182,-0.0181
13654,0.0048,0.0146,0.9987,-0.0310,0.0335,-0.0639
13664,0.0070,0.0134,0.9965,-0.0463,0.0946,0.0124
13674,0.0087,0.0131,0.9927,-0.0157,0.0182,-0.0028
13684,0.0077,0.0138,0.9999,-0.0005,0.0030,0.0430
13694,0.0087,0.0158,0.9965,-0.0157,-0.0123,-0.0334
13704,0.0092,0.0155,1.0028,-0.0463,-0.0276,-0.0334
13714,0.0050,0.0124,0.9973,-0.0310,-0.0276,-0.0792
13724,0.0075,0.0099,0.9975,-0.0615,0.0182,-0.0181
13734,0.0092,0.0124,1.0021,-0.0615,0.0335,-0.0486
13744,0.0084,0.0131,1.0002,-0.0157,0.0182,0.0582
13754,0.0043,0.0068,1.0035,0.0148,-0.0581,0.0430
13764,0.0050,0.0099,0.9994,0.0301,0.0946,-0.0334
13774,0.0050,0.0104,0.9975,-0.0157,0.0793,-0.0486
13784,0.0033,0.0143,0.9912,0.0453,0.0030,0.0277
13794,0.0077,0.0126,1.0028,0.0453,-0.0581,0.0124
13804,0.0035,0.0102,1.0004,0.0301,-0.0734,0.0124
13814,0.0057,0.0138,0.9999,0.0911,0.0335,0.0430
13824,0.0065,0.0146,0.9946,0.0453,0.0488,-0.0486
13834,0.0062,0.0104,0.9941,0.0301,0.0793,-0.0334
13844,0.0026,0.0116,1.0038,0.0148,0.0030,0.0735
13854,0.0067,0.0136,1.0018,-0.0310,-0.0581,0.1040
13864,0.0018,0.0141,1.0101,-0.0310,-0.0581,0.0888
13874,0.0055,0.0165,0.9960,0.0148,0.0335,0.1193
13884,0.0077,0.0134,1.0002,-0.0310,0.0335,0.0735
13894,0.0053,0.0107,0.9994,-0.0005,0.0182,0.0124
13904,0.0055,0.0063,0.9956,-0.0005,-0.0428,0.1040
13914,0.0116,0.0085,0.9968,-0.0157,-0.0581,0.0277
13924,0.0084,0.0119,1.0031,-0.0005,-0.0276,0.0277
13934,0.0109,0.0138,0.9985,-0.0005,-0.0123,-0.0181
13944,0.0084,0.0112,0.9936,-0.0157,0.0335,-0.0028
13954,0.0050,0.0082,0.9977,0.0301,0.0030,0.0124
13964,0.0021,0.0121,1.0026,-0.0310,0.0640,-0.0334
13974,0.0067,0.0136,1.0016,-0.0157,0.0335,-0.0334
13984,0.0077,0.0153,1.0026,0.0911,0.0030,0.0124
13994,0.0065,0.0124,1.0002,0.0148,0.0030,0.0735
14004,-0.0004,0.0119,1.0040,0.0148,0.0335,0.0124
14014,0.0062,0.0109,0.9956,0.0148,0.0488,0.0124
14024,0.0038,0.0160,1.0064,-0.0157,0.0488,-0.0639
14034,0.0114,0.0136,0.9951,0.0301,0.0030,-0.0181
14044,0.0129,0.0119,0.9999,-0.0005,0.0640,-0.0334
14054,0.0055,0.0112,1.0011,-0.0310,0.0488,0.0124
14064,0.0033,0.0151,0.9944,-0.0615,-0.0428,0.1040
14074,0.0057,0.0119,1.0002,-0.0615,-0.1192,0.1193
14084,0.0035,0.0087,1.0006,-0.0005,-0.0276,0.0735
14094,0.0033,0.0097,1.0016,0.0301,-0.0276,0.1193
14104,0.0006,0.0107,1.0018,-0.0157,0.0030,0.1040
14114,0.0099,0.0119,1.0006,-0.0157,-0.0734,0.0430
14124,0.0040,0.0073,0.9997,0.0911,0.0488,0.0277
14134,0.0082,0.0070,0.9958,0.1064,0.0030,-0.0028
14144,0.0035,0.0121,0.9939,0.0453,0.0030,0.0430
14154,0.0062,0.0080,0.9992,0.0759,0.0640,-0.0334
14164,0.0087,0.0112,0.9999,-0.0463,0.0946,-0.0486
14174,0.0045,0.0104,0.9960,0.0301,0.1556,-0.0792
14184,0.0092,0.0131,0.9931,-0.0463,0.1098,0.0124
14194,0.0053,0.0143,1.0004,0.0453,0.0182,-0.0639
14204,0.0011,0.0141,0.9987,0.0301,-0.0123,-0.0486
14214,0.0065,0.0134,1.0033,-0.0005,-0.0581,0.0735
14224,0.0033,0.0165,1.0011,-0.0005,0.0640,0.0124
14234,0.0045,0.0124,0.9958,-0.0921,-0.0123,0.0582
14244,0.0043,0.0097,0.9989,-0.0310,0.0640,0.0735
14254,0.0114,0.0119,0.9960,-0.0463,0.0335,-0.0028
14264,0.0062,0.0126,1.0014,0.0301,-0.0428,-0.0334
14274,0.0060,0.0109,0.9924,-0.0463,-0.0734,-0.0181
14284,0.0062,0.0119,0.9973,0.0759,0.0335,0.0277
14294,0.0067,0.0099,0.9994,0.1064,0.0946,0.0582
14304,0.0021,0.0114,0.9939,0.0301,0.0335,-0.0639
14314,-0.0016,0.0136,1.0050,0.0911,0.0793,-0.0639
14324,0.0077,0.0087,1.0011,0.0148,-0.0276,-0.0334
14334,0.0072,0.0129,0.9994,-0.0005,-0.0276,-0.0792
14344,0.0092,0.0180,1.0011,0.0301,0.0182,0.0888
14354,0.0067,0.0134,0.9987,0.0453,-0.0276,-0.0639
14364,0.0028,0.0104,1.0006,-0.0463,0.0793,-0.0944
14374,0.0072,0.0109,1.0004,0.0453,0.1404,-0.0334
14384,0.0065,0.0126,0.9910,-0.0005,0.0793,0.0277
14394,0.0038,0.0124,0.9951,-0.0157,0.1098,0.0277
14404,0.0053,0.0114,1.0045,-0.0921,0.1251,0.0124
14414,0.0023,0.0104,0.9970,-0.1226,0.0946,0.0277
14424,0.0050,0.0119,0.9948,-0.0463,0.0335,-0.0028
14434,0.0016,0.0129,1.0006,0.0148,0.0335,0.0582
14444,0.0072,0.0129,0.9953,-0.0157,0.0030,0.0735
14454,0.0030,0.0153,1.0006,-0.0463,0.0793,0.0277
14464,0.0048,0.0131,1.0035,-0.0157,-0.0276,0.0582
14474,0.0070,0.0131,0.9951,-0.0463,-0.0123,0.0430
14484,0.0053,0.0131,1.0004,-0.1073,-0.0123,-0.0181
14494,0.0102,0.0080,0.9999,-0.0921,0.0030,0.0124
14504,0.0028,0.0114,1.0016,-0.0615,0.0488,-0.0181
14514,0.0057,0.0136,0.9980,-0.0615,0.0030,0.0735
14524,0.0089,0.0092,1.0026,-0.0157,-0.0581,-0.0639
14534,0.0060,0.0107,0.9977,-0.0310,0.0335,0.0124
14544,0.0053,0.0112,0.9960,-0.0310,0.0640,0.0124
14554,0.0035,0.0097,0.9987,0.0606,0.0488,0.0277
14564,0.0028,0.0097,0.9970,-0.0005,0.0640,-0.0028
14574,0.0028,0.0097,1.0018,-0.0005,0.0946,0.0124
14584,0.0062,0.0104,0.9965,0.0148,0.1251,-0.0639
14594,0.0075,0.0134,1.0016,0.0453,0.0182,-0.0334
14604,0.0097,0.0090,0.9934,0.0759,-0.0123,-0.1097
14614,0.0040,0.0119,0.9994,0.1064,0.0488,0.0124
14624,0.0060,0.0136,1.0002,0.0606,0.0030,0.0124
14634,0.0040,0.0092,0.9958,0.1217,0.0488,-0.0486
14644,0.0021,0.0134,1.0052,0.1064,0.0793,-0.0334
14654,0.0038,0.0143,0.9970,0.0301,0.0640,-0.0028
14664,0.0048,0.0192,1.0009,-0.0005,0.0182,-0.0792
14674,0.0062,0.0129,1.0009,-0.0463,-0.0123,0.0124
14684,0.0035,0.0163,1.0040,0.0148,-0.0276,0.0277
14694,0.0050,0.0119,0.9956,-0.0157,-0.0276,0.0430
14704,0.0053,0.0104,0.9968,-0.0615,-0.0734,-0.0028
14714,0.0084,0.0109,0.9997,-0.0157,-0.0123,-0.0486
14724,0.0107,0.0097,0.9985,-0.0921,-0.0428,0.0430
14734,0.0087,0.0104,0.9977,-0.1226,0.0182,-0.0028
14744,0.0053,0.0109,0.9977,0.0148,0.0488,0.0430
14754,0.0072,0.0099,1.0009,-0.0005,0.0640,-0.0334
14764,0.0087,0.0114,0.9980,0.0148,0.0335,0.0888
14774,0.0013,0.0131,0.9997,-0.0615,0.1098,0.0735
14784,0.0045,0.0148,0.9997,-0.0615,0.1098,0.0124
14794,0.0092,0.0143,1.0002,-0.0005,0.0030,0.0124
14804,0.0114,0.0031,1.0188,-0.0157,0.0182,0.0124
14814,0.0102,0.0185,0.9958,0.0148,0.0488,0.0888
14824,0.0006,0.0136,1.0014,-0.0463,0.0182,0.0582
14834,0.0067,0.0136,0.9965,-0.1379,0.0335,0.0888
14844,0.0099,0.0097,1.0031,0.0301,-0.0276,-0.0181
14854,0.0070,0.0124,1.0014,0.0148,-0.0428,-0.1097
14864,0.0050,0.0112,0.9927,-0.0157,-0.0886,-0.1097
14874,0.0080,0.0138,1.0026,0.0301,-0.1039,-0.0639
14884,0.0055,0.0099,0.9987,-0.0157,-0.0581,-0.0334
14894,0.0053,0.0129,1.0004,0.0606,-0.0734,0.0430
14904,0.0057,0.0146,1.0016,0.0148,-0.1192,0.0888
14914,0.0028,0.0138,1.0004,-0.0768,-0.0886,0.0735
14924,0.0060,0.0116,1.0069,0.0453,-0.1039,0.0582
14934,0.0028,0.0138,0.9987,-0.0615,-0.0886,0.0735
14944,0.0107,0.0141,0.9944,0.0148,-0.0734,0.0277
14954,0.0077,0.0099,1.0011,0.0301,0.0182,0.0277
14964,0.0102,0.0094,0.9941,0.0606,0.0946,0.0888
14974,0.0067,0.0114,1.0021,0.0301,0.1556,0.0735
14984,0.0072,0.0141,1.0004,-0.0157,0.0640,0.0582
14994,0.0089,0.0114,0.9960,-0.0005,0.0488,-0.0028
15004,0.0092,0.0136,0.9980,0.0148,0.0488,0.0124
15014,0.0048,0.0134,1.0021,0.0148,0.0640,0.0124
15024,0.0053,0.0124,0.9953,-0.0310,0.1098,0.0277
15034,0.0048,0.0126,0.9982,-0.0005,0.0793,0.0582
15044,0.0006,0.0116,0.9958,-0.0157,0.0488,0.0735
15054,0.0050,0.0094,1.0004,-0.0310,-0.0123,0.0582
15064,0.0018,0.0092,1.0002,0.0606,-0.0428,0.1040
15074,0.0072,0.0141,0.9970,0.0453,-0.0428,-0.0334
15084,0.0077,0.0129,1.0048,-0.0005,-0.0428,-0.0028
15094,0.0040,0.0087,1.0004,-0.0157,-0.0886,-0.0792
15104,0.0067,0.0092,0.9982,0.0453,-0.0886,-0.0181
15114,0.0057,0.0104,0.9941,0.0148,-0.1344,-0.0486
15124,0.0070,0.0124,1.0004,-0.0615,-0.0886,0.0277
15134,0.0062,0.0102,0.9987,0.0911,-0.0428,0.0124
15144,0.0126,0.0109,0.9975,0.0453,0.0182,0.0430
15154,0.0087,0.0129,1.0002,-0.0310,0.0030,0.0430
15164,0.0084,0.0124,0.9982,0.0148,0.0182,0.0430
15174,0.0107,0.0124,0.9960,0.0453,0.0182,0.0888
15184,0.0060,0.0129,0.9973,0.0606,0.0488,0.0582
15194,0.0065,0.0090,0.9917,-0.0005,0.0946,0.0124
15204,0.0043,0.0116,1.0031,0.0301,0.0793,0.0430
15214,0.0043,0.0107,0.9965,0.1064,0.0946,0.0430
15224,0.0045,0.0112,1.0011,0.0148,0.0793,0.0277
15234,-0.0019,0.0143,0.9922,0.0301,0.1098,0.0124
15244,0.0023,0.0107,1.0011,0.0606,-0.0123,-0.0181
15254,0.0065,0.0151,0.9985,-0.0005,-0.0276,-0.0486
15264,0.0048,0.0121,1.0014,-0.0921,-0.0581,-0.0028
15274,0.0097,0.0094,0.9985,-0.0615,-0.1039,-0.0334
15284,0.0107,0.0102,0.9997,0.0301,-0.0581,-0.0486
15294,0.0057,0.0090,0.9977,-0.0157,-0.0276,0.0277
15304,0.0092,0.0116,0.9931,-0.0157,-0.0581,0.0430
15314,0.0097,0.0087,0.9929,0.0148,0.0182,0.0582
15324,0.0092,0.0099,1.0021,0.1217,0.0030,0.0277
15334,0.0087,0.0094,0.9980,0.1522,0.0182,-0.0639
15344,0.0080,0.0146,1.0016,0.0606,0.0030,-0.0181
15354,0.0075,0.0085,0.9914,0.0911,0.0335,-0.0028
15364,0.0082,0.0136,0.9939,0.1675,0.0030,-0.0181
15374,0.0070,0.0134,0.9992,0.0301,-0.0123,-0.0181
15384,0.0082,0.0155,0.9994,0.0911,0.0182,0.0888
15394,0.0038,0.0134,0.9999,0.0148,0.0488,0.0582
15404,0.0023,0.0153,1.0045,0.0148,0.0946,0.1040
15414,-0.0004,0.0124,1.0062,-0.0615,-0.0123,0.0124
15424,0.0035,0.0146,1.0002,-0.0768,-0.0886,-0.0181
15434,0.0065,0.0085,1.0031,-0.0921,-0.1192,-0.0486
15444,0.0008,0.0077,0.9958,-0.0615,-0.0734,-0.0334
15454,0.0102,0.0097,0.9994,0.0301,-0.0734,0.0430
15464,0.0072,0.0043,1.0043,0.0606,0.0030,0.0430
15474,0.0070,0.0097,0.9999,0.0911,-0.0123,0.0430
15484,0.0084,0.0046,0.9948,0.1522,-0.1039,0.0124
15494,0.0133,0.0112,0.9912,0.0759,-0.0734,-0.0944
15504,0.0131,0.0129,0.9973,0.0911,0.0335,-0.0639
15514,0.0028,0.0129,0.9946,0.1369,0.0030,0.0735
15524,0.0092,0.0209,1.0084,0.1064,-0.1039,0.0582
15534,0.0053,0.0185,0.9982,0.1522,0.0182,0.0735
15544,0.0104,0.0148,1.0023,0.1217,0.0335,0.1498
15554,0.0119,0.0151,1.0014,0.0453,0.1098,0.0430
15564,0.0082,0.0141,1.0002,0.0606,0.0793,0.0277
15574,0.0055,0.0143,1.0014,0.0759,0.1556,0.0277
15584,0.0060,0.0143,1.0077,0.0759,0.0946,-0.0792
15594,0.0013,0.0173,1.0009,-0.0005,0.0793,-0.0486
15604,0.0011,0.0155,0.9931,-0.0310,0.1251,-0.0944
15614,0.0011,0.0092,0.9994,-0.0768,0.0640,-0.1097
15624,0.0030,0.0114,0.9989,-0.0615,-0.0428,-0.0944
15634,0.0045,0.0116,1.0028,-0.1379,-0.1497,-0.0334
15644,0.0040,0.0036,1.0009,-0.0615,-0.1650,0.0735
15654,0.0070,0.0043,0.9963,0.0301,-0.2260,0.0888
15664,0.0109,0.0065,0.9958,0.0148,-0.0581,0.0735
15674,0.0077,0.0104,1.0002,0.0453,-0.0428,0.0277
15684,0.0089,0.0116,0.9951,0.0301,-0.1344,0.0277
15694,0.0099,0.0136,0.9960,-0.0157,-0.0581,-0.0028
15704,0.0070,0.0121,1.0002,0.0759,-0.0581,0.0124
15714,0.0062,0.0124,1.0018,0.0301,0.0640,-0.0028
15724,0.0067,0.0138,1.0011,-0.0310,0.0793,0.0277
15734,0.0050,0.0109,1.0021,-0.0310,0.0946,0.0124
15744,0.0070,0.0136,0.9970,0.0759,0.0793,0.1040
15754,0.0057,0.0136,0.9970,0.0301,0.0030,0.0888
15764,0.0082,0.0126,0.9999,0.0759,-0.0123,0.0430
15774,0.0028,0.0116,0.9992,0.0148,0.0488,0.0277
15784,-0.0016,0.0077,0.9987,-0.0615,0.0488,0.0277
15794,0.0011,0.0097,0.9977,-0.0921,-0.0886,0.0124
15804,0.0043,0.0094,0.9975,-0.0157,-0.1192,0.0582
15814,0.0060,0.0097,0.9985,-0.0310,-0.1039,0.1498
15824,0.0065,0.0058,1.0004,0.0148,-0.0734,0.0430
15834,0.0053,0.0104,0.9985,0.0148,0.0946,-0.0028
15844,0.0018,0.0024,1.0077,0.0453,0.0030,-0.0334
15854,0.0072,0.0129,0.9948,-0.0005,-0.0581,0.0277
15864,0.0072,0.0121,0.9927,-0.0921,-0.0123,-0.0028
15874,0.0035,0.0148,0.9992,-0.0615,-0.0581,-0.0028
15884,0.0087,0.0158,0.9941,-0.0768,-0.1802,0.0582
15894,0.0094,0.0119,0.9992,-0.0005,-0.1192,0.1040
15904,0.0033,0.0099,1.0031,0.0606,0.1709,0.1346
15914,0.0070,0.0094,0.9953,0.0301,0.1862,0.0735
15924,0.0060,0.0094,0.9992,0.0148,0.1556,0.0124
15934,0.0075,0.0073,0.9975,-0.0463,0.0182,-0.0486
15944,0.0016,0.0104,0.9946,-0.0005,0.0335,-0.0486
15954,0.0026,0.0109,0.9989,0.0301,-0.0123,0.0277
15964,0.0030,0.0065,0.9975,0.0453,0.0488,-0.0181
15974,0.0045,0.0124,1.0040,0.0453,0.0793,0.0582
15984,0.0035,0.0073,1.0011,0.0148,0.0793,0.0124
15994,0.0021,0.0094,0.9975,-0.0157,0.0488,0.1193
16004,0.0045,0.0160,0.9965,-0.0005,-0.0123,-0.0028
16014,0.0099,0.0134,0.9929,0.0759,-0.0276,0.0124
16024,0.0033,0.0131,1.0002,0.0453,0.0182,-0.0028
16034,0.0087,0.0146,0.9965,0.0148,-0.0581,-0.0028
16044,0.0087,0.0102,1.0004,0.0759,-0.0276,0.0582
16054,0.0092,0.0163,1.0006,0.0148,0.0030,0.1040
16064,0.0077,0.0114,1.0028,0.0606,0.0335,0.1346
16074,0.0048,0.0102,0.9968,-0.0157,0.0182,0.0735
16084,0.0075,0.0094,0.9987,0.0148,-0.0581,0.0888
16094,0.0050,0.0092,0.9956,-0.0310,0.0030,0.0735
16104,0.0104,0.0109,1.0002,-0.0463,0.0182,-0.0028
16114,0.0055,0.0141,1.0040,-0.0005,0.1098,0.0277
16124,0.0131,0.0146,0.9973,-0.0615,0.0488,0.0430
16134,0.0099,0.0138,1.0018,-0.0463,0.0640,-0.0181
16144,0.0075,0.0155,0.9975,-0.0768,0.0030,0.0582
16154,0.0033,0.0121,1.0004,-0.0157,-0.0581,0.0735
16164,0.0077,0.0102,1.0004,-0.0463,-0.0276,0.0582
16174,0.0102,0.0112,1.0055,0.0148,-0.0581,0.0582
16184,0.0102,0.0099,0.9997,-0.0005,-0.0276,0.0735
16194,0.0050,0.0099,0.9960,-0.0157,-0.0428,0.0124
16204,0.0038,0.0099,0.9977,0.0148,-0.0276,0.0124
16214,0.0033,0.0148,0.9946,-0.0005,-0.0734,0.0430
16224,0.0065,0.0143,1.0011,-0.0615,0.0030,-0.0334
16234,0.0072,0.0131,0.9994,-0.0463,0.0182,0.0430
16244,0.0057,0.0141,1.0023,0.0301,-0.0581,0.0430
16254,0.0043,0.0116,0.9965,-0.0005,-0.0734,0.1040
16264,0.0043,0.0119,0.9989,-0.0463,-0.0428,0.0735
16274,0.0057,0.0114,1.0064,-0.0463,0.0182,-0.0028
16284,0.0065,0.0136,1.0038,-0.0157,-0.0276,-0.0028
16294,0.0070,0.0158,1.0040,0.0911,-0.0276,-0.0334
16304,0.0070,0.0107,0.9987,0.0759,-0.0581,-0.0028
16314,0.0062,0.0129,0.9987,0.0301,-0.0734,-0.0334
16324,0.0053,0.0141,0.9989,-0.0157,-0.0734,0.0430
16334,0.0045,0.0107,0.9968,-0.0615,-0.0428,0.0124
16344,0.0121,0.0119,0.9994,0.0759,0.0030,0.0430
16354,0.0062,0.0102,0.9970,0.0148,0.0640,0.0124
16364,0.0097,0.0155,0.9953,0.0148,-0.0123,-0.0028
16374,0.0072,0.0075,0.9985,0.0148,0.0030,-0.0334
16384,0.0097,0.0124,1.0026,0.0606,0.0488,0.0124
16394,0.0065,0.0092,1.0009,0.0301,0.0640,-0.0028
16404,-0.0014,0.0090,1.0028,-0.0157,0.0640,0.0888
16414,0.0043,0.0112,0.9994,-0.0157,0.0335,0.0124
16424,0.0067,0.0087,1.0050,-0.0310,0.0640,0.0124
16434,0.0045,0.0104,0.9958,0.0911,0.0946,0.0888
16444,0.0033,0.0143,0.9963,0.0759,0.0793,-0.0181
16454,0.0067,0.0121,0.9980,0.0759,0.0182,-0.0334
16464,0.0053,0.0080,0.9973,-0.0005,-0.0123,-0.0486
16474,0.0070,0.0136,1.0028,0.0148,-0.0123,-0.0334
16484,0.0065,0.0182,0.9975,0.0301,0.0335,-0.0181
16494,0.0040,0.0097,0.9946,0.0148,-0.0734,0.0124
16504,0.0030,0.0126,0.9958,0.0453,-0.0428,0.0277
16514,0.0092,0.0124,1.0016,-0.0005,-0.0581,0.0735
16524,0.0072,0.0148,0.9965,-0.0005,-0.1039,0.0735
16534,0.0107,0.0116,1.0014,0.0301,-0.0886,-0.0639
16544,0.0087,0.0134,0.9977,0.0148,-0.0581,-0.0639
16554,0.0043,0.0136,1.0031,-0.0768,0.0946,0.0277
16564,0.0082,0.0126,0.9934,0.0148,0.0640,-0.0028
16574,0.0050,0.0134,0.9977,0.0453,0.0335,-0.0028
16584,0.0055,0.0151,0.9951,0.0606,-0.0276,0.0124
16594,0.0102,0.0112,0.9946,0.0148,0.0182,0.0277
16604,-0.0009,0.0182,0.9965,0.0911,-0.0428,0.0124
16614,0.0035,0.0143,1.0045,0.0911,0.0335,-0.0486
16624,0.0057,0.0155,0.9992,-0.0921,0.0488,-0.0028
16634,0.0026,0.0129,0.9987,-0.0310,0.0182,0.0735
16644,0.0111,0.0114,0.9992,-0.0921,-0.0123,-0.0334
16654,0.0116,0.0090,0.9934,-0.1073,0.0182,0.0735
16664,0.0013,0.0112,0.9992,-0.0615,-0.0428,0.0735
16674,0.0072,0.0107,1.0009,-0.1073,0.0030,-0.0639
16684,0.0040,0.0060,1.0016,-0.0921,0.0030,-0.0639
16694,0.0072,0.0109,0.9982,-0.0005,0.0182,-0.0639
16704,0.0035,0.0112,1.0002,0.0301,0.1098,-0.1250
16714,0.0094,0.0087,0.9968,-0.0463,0.0946,0.0430
16724,0.0077,0.0073,1.0045,0.0453,0.0182,-0.0028
16734,0.0102,0.0116,0.9948,0.0606,0.0030,-0.0181
16744,0.0089,0.0131,1.0026,0.0148,0.0488,-0.0334
16754,0.0089,0.0141,0.9953,0.0148,0.0488,-0.0028
16764,0.0102,0.0134,1.0026,0.0453,0.0488,-0.0639
16774,0.0062,0.0109,1.0018,0.0148,0.0182,-0.0334
16784,0.0072,0.0134,0.9965,0.0606,0.0793,-0.0028
16794,0.0067,0.0112,0.9982,0.0301,0.1251,-0.0486
16804,0.0070,0.0126,0.9989,-0.0615,0.0946,-0.0639
16814,0.0035,0.0102,0.9999,-0.0005,0.0946,-0.0181
16824,0.0070,0.0097,0.9951,-0.0463,0.1251,-0.0181
16834,0.0023,0.0124,1.0002,0.0148,0.0335,-0.0181
16844,0.0018,0.0107,0.9999,-0.0310,-0.0276,-0.0334
16854,0.0062,0.0136,1.0026,0.0148,-0.0276,0.0124
16864,0.0077,0.0109,1.0009,0.0301,-0.0734,-0.0486
16874,0.0087,0.0131,1.0018,0.0453,-0.0734,0.0124
16884,0.0062,0.0092,1.0023,-0.0005,-0.1039,0.0124
16894,0.0099,0.0131,1.0004,0.0301,-0.1192,0.0582
16904,0.0048,0.0121,0.9968,-0.0615,-0.0428,0.0430
16914,0.0080,0.0143,1.0002,-0.0157,0.0640,-0.0028
16924,0.0045,0.0094,0.9980,0.0301,0.0335,0.0277
16934,0.0057,0.0138,0.9958,-0.0310,0.0335,0.0277
16944,0.0045,0.0153,0.9941,0.0911,0.0488,-0.0028
16954,0.0060,0.0170,1.0002,0.0453,0.0030,0.0582
16964,0.0077,0.0175,0.9992,-0.0005,-0.0123,0.0277
16974,0.0060,0.0134,0.9992,-0.0005,0.0640,0.0735
16984,0.0065,0.0124,0.9985,-0.0005,0.1251,0.0430
16994,0.0055,0.0055,0.9931,-0.0310,0.1098,-0.0181
17004,0.0026,0.0077,0.9944,-0.0005,0.0335,-0.0181
17014,0.0018,0.0058,0.9973,0.0911,-0.0734,-0.0181
17024,0.0048,0.0085,1.0014,0.0759,-0.0886,-0.0944
17034,0.0018,0.0126,0.9992,0.0453,-0.1039,-0.0944
17044,0.0062,0.0124,1.0050,0.0148,-0.1192,-0.0181
